TrialIndex,Subject,Congruence,ResponseTime,Correct
224,1,2,585,1
225,1,2,436,1
226,1,2,485,1
227,1,2,517,1
228,1,2,507,1
229,1,1,513,1
230,1,2,624,1
231,1,1,466,1
232,1,1,466,1
233,1,1,410,1
234,1,1,580,1
235,1,2,567,1
236,1,1,443,1
237,1,2,571,1
238,1,2,623,1
239,1,1,521,1
240,1,2,583,0
241,1,1,431,1
242,1,2,520,1
243,1,1,558,1
244,1,2,451,0
245,1,1,368,1
246,1,2,516,1
247,1,1,554,1
248,1,1,487,1
249,1,2,534,1
250,1,1,516,1
251,1,1,530,1
252,1,2,591,1
253,1,1,506,1
254,1,1,449,1
255,1,2,466,1
352,1,1,552,0
353,1,1,449,1
354,1,2,450,1
355,1,2,418,1
356,1,2,532,1
357,1,1,538,1
358,1,2,471,1
359,1,2,591,1
360,1,1,459,1
361,1,2,523,1
362,1,1,561,0
363,1,1,450,1
364,1,1,491,1
365,1,2,554,1
366,1,2,495,1
367,1,2,573,1
368,1,2,545,1
369,1,2,526,1
370,1,1,420,1
371,1,1,422,1
372,1,1,448,1
373,1,1,393,1
374,1,1,484,1
375,1,2,435,0
376,1,1,697,1
377,1,2,560,1
378,1,2,524,1
379,1,2,482,1
380,1,1,433,1
381,1,1,434,1
382,1,2,603,1
383,1,1,518,1
480,1,2,715,1
481,1,1,417,1
482,1,1,491,1
483,1,2,554,1
484,1,1,447,1
485,1,2,568,1
486,1,2,540,1
487,1,2,529,1
488,1,1,462,1
489,1,1,502,0
490,1,1,610,1
491,1,1,491,1
492,1,2,579,0
493,1,2,467,1
494,1,1,475,1
495,1,1,379,1
496,1,2,646,1
497,1,2,471,1
498,1,1,455,1
499,1,2,543,1
500,1,2,564,1
501,1,2,464,1
502,1,1,496,1
503,1,2,671,1
504,1,1,479,1
505,1,1,590,1
506,1,2,562,1
507,1,2,614,1
508,1,1,464,1
509,1,1,432,1
510,1,2,521,1
511,1,1,607,1
608,1,2,649,0
609,1,1,782,1
610,1,1,434,1
611,1,1,483,1
612,1,1,514,1
613,1,2,472,1
614,1,2,456,1
615,1,1,441,1
616,1,2,514,1
617,1,1,385,1
618,1,1,644,1
619,1,2,541,1
620,1,2,474,1
621,1,2,530,1
622,1,1,487,1
623,1,2,535,1
624,1,1,548,1
625,1,1,473,1
626,1,1,617,1
627,1,2,683,1
628,1,2,714,1
629,1,2,584,1
630,1,1,756,1
631,1,1,585,1
632,1,1,708,1
633,1,2,523,1
634,1,2,521,1
635,1,2,527,1
636,1,1,595,1
637,1,2,574,1
638,1,1,490,1
639,1,2,601,1
736,1,1,593,1
737,1,1,372,1
738,1,1,360,1
739,1,2,348,0
740,1,1,429,1
741,1,1,446,1
742,1,2,615,1
743,1,1,401,1
744,1,2,588,1
745,1,2,511,1
746,1,2,445,1
747,1,2,502,1
748,1,1,444,1
749,1,1,397,1
750,1,2,512,0
751,1,1,426,1
752,1,1,556,1
753,1,2,704,1
754,1,2,679,1
755,1,1,486,1
756,1,1,470,1
757,1,2,478,1
758,1,2,477,1
759,1,1,445,1
760,1,2,421,1
761,1,1,543,1
762,1,2,460,1
763,1,2,412,1
764,1,2,462,1
765,1,1,438,1
766,1,2,415,1
767,1,1,481,1
864,1,2,1016,1
865,1,2,570,1
866,1,2,494,1
867,1,2,525,1
868,1,2,547,1
869,1,2,488,1
870,1,2,463,1
871,1,1,407,1
872,1,1,514,1
873,1,1,480,1
874,1,1,447,1
875,1,2,464,1
876,1,1,488,1
877,1,2,599,1
878,1,1,458,1
879,1,1,475,1
880,1,2,627,0
881,1,1,633,1
882,1,2,498,1
883,1,2,457,1
884,1,2,665,1
885,1,2,425,1
886,1,1,699,1
887,1,1,498,1
888,1,1,569,1
889,1,2,612,1
890,1,1,462,1
891,1,2,718,1
892,1,1,572,1
893,1,1,912,1
894,1,1,502,1
895,1,1,525,1
1056,10,1,478,1
1057,10,2,341,1
1058,10,1,387,1
1059,10,1,334,1
1060,10,2,371,1
1061,10,2,383,0
1062,10,1,647,1
1063,10,1,344,1
1064,10,2,444,1
1065,10,1,357,1
1066,10,1,458,1
1067,10,1,401,1
1068,10,1,348,1
1069,10,2,441,1
1070,10,1,322,1
1071,10,2,496,1
1072,10,2,439,1
1073,10,1,424,1
1074,10,2,578,1
1075,10,2,389,1
1076,10,1,377,1
1077,10,1,356,1
1078,10,2,417,1
1079,10,1,387,1
1080,10,2,382,1
1081,10,2,321,1
1082,10,2,367,1
1083,10,2,411,1
1084,10,1,437,1
1085,10,2,519,1
1086,10,2,421,0
1087,10,1,347,1
1184,10,2,568,1
1185,10,1,380,1
1186,10,2,390,0
1187,10,2,478,0
1188,10,2,346,1
1189,10,2,422,1
1190,10,2,480,1
1191,10,1,448,1
1192,10,1,416,1
1193,10,1,362,1
1194,10,2,398,1
1195,10,1,393,1
1196,10,1,404,1
1197,10,2,438,1
1198,10,1,376,1
1199,10,1,420,1
1200,10,2,406,1
1201,10,2,360,1
1202,10,1,444,1
1203,10,1,396,1
1204,10,1,399,1
1205,10,2,418,1
1206,10,1,396,1
1207,10,2,438,1
1208,10,2,416,1
1209,10,2,410,1
1210,10,1,412,1
1211,10,2,406,1
1212,10,1,360,1
1213,10,2,452,1
1214,10,1,397,1
1215,10,1,368,1
1312,10,1,489,1
1313,10,1,344,1
1314,10,2,421,0
1315,10,2,403,1
1316,10,1,398,1
1317,10,2,449,1
1318,10,2,441,1
1319,10,1,339,1
1320,10,1,400,1
1321,10,1,347,1
1322,10,1,391,1
1323,10,2,355,0
1324,10,2,436,1
1325,10,1,413,1
1326,10,1,399,1
1327,10,1,402,1
1328,10,2,388,0
1329,10,2,436,1
1330,10,2,574,1
1331,10,2,434,1
1332,10,2,435,1
1333,10,1,348,1
1334,10,2,649,1
1335,10,2,354,1
1336,10,2,470,1
1337,10,2,398,1
1338,10,1,401,1
1339,10,1,620,1
1340,10,1,390,1
1341,10,1,345,1
1342,10,1,398,1
1343,10,2,400,1
1440,10,1,439,1
1441,10,1,408,1
1442,10,1,339,1
1443,10,1,336,1
1444,10,1,357,1
1445,10,2,530,1
1446,10,2,455,1
1447,10,1,400,1
1448,10,1,347,1
1449,10,2,359,1
1450,10,2,468,1
1451,10,2,356,1
1452,10,1,385,1
1453,10,1,348,1
1454,10,1,401,1
1455,10,1,347,1
1456,10,2,336,1
1457,10,1,397,1
1458,10,1,352,1
1459,10,2,692,1
1460,10,2,316,0
1461,10,2,406,1
1462,10,2,449,1
1463,10,2,426,1
1464,10,2,452,1
1465,10,2,340,1
1466,10,1,346,1
1467,10,2,630,1
1468,10,2,472,1
1469,10,2,480,1
1470,10,1,359,1
1471,10,1,403,1
1568,10,1,427,1
1569,10,2,509,1
1570,10,2,499,1
1571,10,1,418,1
1572,10,2,636,1
1573,10,1,358,1
1574,10,1,378,1
1575,10,2,414,1
1576,10,1,440,1
1577,10,2,377,1
1578,10,1,388,1
1579,10,1,352,1
1580,10,2,420,1
1581,10,1,382,1
1582,10,1,449,1
1583,10,1,386,1
1584,10,2,406,1
1585,10,2,528,1
1586,10,2,398,1
1587,10,2,456,1
1588,10,1,361,1
1589,10,1,405,1
1590,10,1,536,1
1591,10,1,469,1
1592,10,2,373,1
1593,10,2,737,1
1594,10,2,406,1
1595,10,1,384,1
1596,10,2,539,1
1597,10,2,409,1
1598,10,2,443,1
1599,10,1,396,1
1696,10,2,614,1
1697,10,1,456,1
1698,10,2,472,1
1699,10,1,433,1
1700,10,2,546,1
1701,10,2,455,1
1702,10,2,471,1
1703,10,1,407,1
1704,10,2,402,1
1705,10,1,421,1
1706,10,2,471,1
1707,10,2,415,1
1708,10,2,409,1
1709,10,2,514,1
1710,10,1,456,1
1711,10,1,417,1
1712,10,1,379,1
1713,10,1,406,1
1714,10,2,457,1
1715,10,1,410,1
1716,10,2,468,1
1717,10,1,396,1
1718,10,1,390,1
1719,10,2,442,1
1720,10,2,451,1
1721,10,1,380,1
1722,10,1,431,1
1723,10,2,680,1
1724,10,1,376,1
1725,10,1,403,1
1726,10,2,374,1
1727,10,1,330,1
1984,11,1,528,1
1985,11,1,381,1
1986,11,2,793,1
1987,11,2,411,1
1988,11,2,645,1
1989,11,2,534,1
1990,11,1,483,1
1991,11,2,387,1
1992,11,2,398,1
1993,11,1,545,1
1994,11,1,437,1
1995,11,1,447,1
1996,11,1,392,1
1997,11,1,395,1
1998,11,2,486,1
1999,11,2,373,1
2000,11,2,521,1
2001,11,1,543,1
2002,11,1,404,1
2003,11,1,334,1
2004,11,2,460,1
2005,11,1,356,1
2006,11,1,392,1
2007,11,1,292,1
2008,11,2,403,0
2009,11,2,490,1
2010,11,1,465,1
2011,11,2,377,1
2012,11,2,461,1
2013,11,2,589,1
2014,11,1,408,1
2015,11,2,395,1
2112,11,1,482,1
2113,11,2,490,0
2114,11,2,574,1
2115,11,1,722,1
2116,11,2,632,1
2117,11,1,569,1
2118,11,2,461,0
2119,11,2,698,1
2120,11,2,481,1
2121,11,1,496,1
2122,11,1,415,1
2123,11,2,409,1
2124,11,2,371,1
2125,11,2,479,0
2126,11,1,723,1
2127,11,1,593,1
2128,11,2,540,1
2129,11,1,401,1
2130,11,2,500,1
2131,11,1,491,1
2132,11,2,442,1
2133,11,1,419,1
2134,11,1,461,1
2135,11,1,445,1
2136,11,1,462,1
2137,11,1,389,1
2138,11,2,696,1
2139,11,1,415,1
2140,11,2,457,1
2141,11,1,362,1
2142,11,2,422,1
2143,11,2,584,1
2240,11,2,535,1
2241,11,2,636,1
2242,11,2,565,1
2243,11,1,505,1
2244,11,1,392,1
2245,11,1,531,1
2246,11,1,457,1
2247,11,1,361,1
2248,11,2,437,0
2249,11,2,555,1
2250,11,1,784,1
2251,11,2,458,1
2252,11,2,467,1
2253,11,1,395,1
2254,11,2,494,1
2255,11,1,429,1
2256,11,1,438,1
2257,11,2,535,1
2258,11,1,397,1
2259,11,1,407,1
2260,11,2,538,1
2261,11,1,431,1
2262,11,2,609,1
2263,11,2,499,1
2264,11,2,698,1
2265,11,2,393,1
2266,11,2,659,1
2267,11,1,388,1
2268,11,1,447,1
2269,11,2,552,1
2270,11,1,628,1
2271,11,1,374,1
2368,11,1,1058,1
2369,11,1,459,1
2370,11,1,547,1
2371,11,2,592,1
2372,11,1,612,1
2373,11,1,574,1
2374,11,2,466,1
2375,11,1,522,1
2376,11,2,632,1
2377,11,1,449,1
2378,11,2,426,1
2379,11,2,435,1
2380,11,2,525,1
2381,11,2,371,1
2382,11,1,415,1
2383,11,2,505,1
2384,11,1,383,1
2385,11,1,523,1
2386,11,2,449,0
2387,11,2,478,1
2388,11,1,413,1
2389,11,2,527,1
2390,11,1,461,1
2391,11,1,461,1
2392,11,2,677,1
2393,11,2,524,1
2394,11,2,522,1
2395,11,1,520,1
2396,11,2,678,1
2397,11,2,686,1
2398,11,1,501,1
2399,11,1,420,1
2496,11,1,478,1
2497,11,2,509,1
2498,11,1,380,1
2499,11,2,439,1
2500,11,2,424,1
2501,11,1,418,1
2502,11,2,612,1
2503,11,1,471,1
2504,11,1,391,1
2505,11,1,394,1
2506,11,2,629,1
2507,11,2,366,1
2508,11,1,394,1
2509,11,2,653,1
2510,11,2,372,1
2511,11,1,448,1
2512,11,1,625,1
2513,11,2,675,1
2514,11,2,395,0
2515,11,1,482,1
2516,11,1,482,1
2517,11,1,417,1
2518,11,2,531,1
2519,11,1,432,1
2520,11,1,570,1
2521,11,1,414,1
2522,11,2,408,1
2523,11,1,386,1
2524,11,2,558,1
2525,11,2,395,0
2526,11,2,474,1
2527,11,2,442,1
2624,11,2,452,0
2625,11,1,489,1
2626,11,1,632,1
2627,11,1,546,1
2628,11,1,366,1
2629,11,2,594,1
2630,11,1,413,1
2631,11,2,535,1
2632,11,1,749,1
2633,11,2,417,1
2634,11,2,395,0
2635,11,1,442,1
2636,11,1,427,1
2637,11,2,492,1
2638,11,2,755,1
2639,11,2,632,1
2640,11,1,409,1
2641,11,2,459,1
2642,11,1,515,1
2643,11,1,385,1
2644,11,2,741,1
2645,11,1,642,1
2646,11,2,428,1
2647,11,1,453,1
2648,11,2,454,1
2649,11,1,438,1
2650,11,2,392,1
2651,11,2,467,0
2652,11,1,472,1
2653,11,2,456,1
2654,11,1,400,1
2655,11,2,467,1
2816,12,2,593,1
2817,12,1,388,1
2818,12,2,327,0
2819,12,1,553,1
2820,12,2,406,1
2821,12,1,488,1
2822,12,2,448,1
2823,12,2,400,1
2824,12,1,403,1
2825,12,1,462,1
2826,12,1,438,1
2827,12,1,431,1
2828,12,2,432,1
2829,12,1,442,1
2830,12,2,547,1
2831,12,1,408,1
2832,12,2,394,1
2833,12,2,469,1
2834,12,2,420,1
2835,12,2,502,1
2836,12,1,453,1
2837,12,1,366,1
2838,12,2,457,0
2839,12,1,551,1
2840,12,2,387,1
2841,12,1,399,1
2842,12,2,425,1
2843,12,2,475,1
2844,12,2,499,1
2845,12,1,602,1
2846,12,1,421,1
2847,12,1,423,1
2944,12,2,533,1
2945,12,1,482,1
2946,12,1,426,1
2947,12,2,452,1
2948,12,1,436,1
2949,12,2,510,1
2950,12,1,444,1
2951,12,1,548,1
2952,12,1,417,1
2953,12,2,451,1
2954,12,1,396,1
2955,12,2,446,1
2956,12,2,543,1
2957,12,1,484,1
2958,12,2,451,1
2959,12,2,492,1
2960,12,2,531,1
2961,12,2,472,1
2962,12,2,600,1
2963,12,1,523,1
2964,12,1,409,1
2965,12,1,476,1
2966,12,1,452,1
2967,12,1,357,1
2968,12,1,393,1
2969,12,2,412,1
2970,12,2,486,1
2971,12,1,429,1
2972,12,1,431,1
2973,12,2,568,1
2974,12,2,468,1
2975,12,2,572,1
3072,12,1,489,1
3073,12,1,424,1
3074,12,2,530,1
3075,12,1,415,1
3076,12,2,481,1
3077,12,1,457,1
3078,12,1,442,1
3079,12,2,555,1
3080,12,2,392,1
3081,12,2,443,1
3082,12,2,540,1
3083,12,2,458,1
3084,12,2,498,1
3085,12,1,401,1
3086,12,1,420,1
3087,12,1,438,1
3088,12,2,455,1
3089,12,2,544,1
3090,12,1,364,1
3091,12,1,464,1
3092,12,1,400,1
3093,12,2,451,1
3094,12,2,460,1
3095,12,2,460,1
3096,12,1,387,1
3097,12,1,399,1
3098,12,1,377,1
3099,12,1,477,1
3100,12,1,484,1
3101,12,2,539,1
3102,12,2,473,1
3103,12,2,497,1
3200,12,1,434,1
3201,12,2,379,1
3202,12,2,599,1
3203,12,1,489,1
3204,12,1,473,1
3205,12,2,473,0
3206,12,2,493,1
3207,12,2,492,1
3208,12,2,411,1
3209,12,1,549,1
3210,12,1,530,1
3211,12,2,423,1
3212,12,2,393,1
3213,12,1,396,1
3214,12,2,471,1
3215,12,2,463,1
3216,12,1,383,1
3217,12,2,426,1
3218,12,1,436,1
3219,12,2,501,1
3220,12,2,452,1
3221,12,1,445,1
3222,12,2,445,1
3223,12,1,446,1
3224,12,1,455,1
3225,12,1,431,1
3226,12,2,489,1
3227,12,1,784,1
3228,12,1,387,1
3229,12,1,455,1
3230,12,1,447,1
3231,12,2,416,1
3328,12,1,394,1
3329,12,1,420,1
3330,12,2,446,1
3331,12,2,415,1
3332,12,1,433,1
3333,12,2,354,0
3334,12,2,388,1
3335,12,2,487,1
3336,12,2,510,1
3337,12,1,396,1
3338,12,2,439,1
3339,12,2,496,1
3340,12,2,535,1
3341,12,1,524,1
3342,12,1,466,1
3343,12,1,386,1
3344,12,2,510,1
3345,12,2,564,1
3346,12,1,408,1
3347,12,2,442,1
3348,12,2,524,1
3349,12,1,386,1
3350,12,1,389,1
3351,12,2,456,1
3352,12,1,417,1
3353,12,1,419,1
3354,12,1,429,1
3355,12,1,406,1
3356,12,2,480,1
3357,12,1,335,1
3358,12,2,461,1
3359,12,1,373,1
3456,12,2,665,1
3457,12,1,441,1
3458,12,2,530,1
3459,12,1,447,1
3460,12,1,416,1
3461,12,2,393,1
3462,12,2,380,1
3463,12,2,487,1
3464,12,2,526,1
3465,12,2,548,1
3466,12,2,449,1
3467,12,2,473,1
3468,12,1,417,1
3469,12,1,419,1
3470,12,1,421,1
3471,12,1,487,1
3472,12,2,399,1
3473,12,2,417,1
3474,12,2,419,1
3475,12,2,485,0
3476,12,1,481,1
3477,12,1,424,1
3478,12,2,386,1
3479,12,1,382,1
3480,12,1,393,1
3481,12,1,476,1
3482,12,1,420,1
3483,12,2,526,1
3484,12,1,484,1
3485,12,1,443,1
3486,12,2,436,1
3487,12,1,485,1
3808,13,1,395,1
3809,13,1,357,1
3810,13,2,506,1
3811,13,1,465,1
3812,13,2,497,1
3813,13,2,478,1
3814,13,1,399,1
3815,13,2,400,1
3816,13,2,395,1
3817,13,1,366,1
3818,13,2,402,0
3819,13,2,473,1
3820,13,1,305,1
3821,13,1,431,1
3822,13,1,401,1
3823,13,1,371,1
3824,13,2,423,1
3825,13,2,377,1
3826,13,2,365,1
3827,13,2,377,1
3828,13,1,444,1
3829,13,2,437,1
3830,13,1,406,1
3831,13,1,473,1
3832,13,2,521,1
3833,13,1,423,1
3834,13,1,393,1
3835,13,2,443,1
3836,13,1,372,1
3837,13,1,472,1
3838,13,2,504,1
3839,13,2,527,1
3936,13,2,574,1
3937,13,1,402,1
3938,13,2,501,1
3939,13,1,563,1
3940,13,2,407,1
3941,13,1,370,1
3942,13,2,406,1
3943,13,1,473,1
3944,13,1,337,1
3945,13,1,342,1
3946,13,1,371,1
3947,13,1,367,1
3948,13,2,491,1
3949,13,2,490,1
3950,13,1,370,1
3951,13,1,366,1
3952,13,2,426,1
3953,13,1,380,1
3954,13,2,439,1
3955,13,2,400,1
3956,13,2,371,1
3957,13,1,391,1
3958,13,2,666,1
3959,13,2,442,1
3960,13,1,420,1
3961,13,2,454,1
3962,13,2,423,1
3963,13,1,896,1
3964,13,2,463,1
3965,13,1,447,1
3966,13,2,464,1
3967,13,1,352,1
4064,13,2,615,1
4065,13,2,689,1
4066,13,1,376,1
4067,13,2,420,1
4068,13,1,350,1
4069,13,1,370,1
4070,13,1,382,1
4071,13,2,529,1
4072,13,2,319,1
4073,13,2,461,1
4074,13,1,509,1
4075,13,1,323,1
4076,13,2,393,1
4077,13,1,364,1
4078,13,1,424,1
4079,13,2,314,1
4080,13,2,240,0
4081,13,1,342,1
4082,13,2,427,1
4083,13,1,332,1
4084,13,1,666,1
4085,13,2,330,1
4086,13,1,423,1
4087,13,1,345,1
4088,13,2,366,0
4089,13,2,398,1
4090,13,1,417,1
4091,13,2,515,1
4092,13,2,441,1
4093,13,2,378,1
4094,13,1,350,1
4095,13,1,314,1
4192,13,2,365,1
4193,13,2,585,1
4194,13,2,604,1
4195,13,2,423,1
4196,13,1,417,1
4197,13,1,371,1
4198,13,2,415,1
4199,13,2,409,1
4200,13,2,411,1
4201,13,1,397,1
4202,13,1,408,1
4203,13,2,411,1
4204,13,1,389,1
4205,13,2,424,1
4206,13,1,426,1
4207,13,1,420,1
4208,13,1,414,1
4209,13,1,376,1
4210,13,1,404,1
4211,13,1,367,1
4212,13,2,457,1
4213,13,1,346,1
4214,13,1,391,1
4215,13,1,338,1
4216,13,2,463,1
4217,13,2,623,1
4218,13,2,433,0
4219,13,2,455,1
4220,13,2,432,1
4221,13,2,369,1
4222,13,1,453,1
4223,13,1,398,1
4320,13,2,463,1
4321,13,1,463,1
4322,13,2,711,1
4323,13,2,469,1
4324,13,2,501,1
4325,13,2,435,1
4326,13,2,436,1
4327,13,2,437,1
4328,13,1,447,1
4329,13,1,439,1
4330,13,1,473,1
4331,13,1,657,1
4332,13,2,505,1
4333,13,1,440,1
4334,13,1,417,1
4335,13,2,651,1
4336,13,1,428,1
4337,13,2,534,1
4338,13,2,507,1
4339,13,1,394,1
4340,13,2,412,1
4341,13,2,542,1
4342,13,1,492,1
4343,13,1,387,1
4344,13,2,566,1
4345,13,1,626,1
4346,13,2,452,1
4347,13,1,460,1
4348,13,1,524,1
4349,13,1,442,1
4350,13,1,468,1
4351,13,2,524,1
4448,13,2,553,1
4449,13,1,382,1
4450,13,2,449,1
4451,13,1,410,1
4452,13,2,444,1
4453,13,1,420,1
4454,13,2,414,1
4455,13,1,416,1
4456,13,2,458,1
4457,13,1,411,1
4458,13,1,453,1
4459,13,1,398,1
4460,13,1,416,1
4461,13,2,426,1
4462,13,1,428,1
4463,13,1,397,1
4464,13,2,456,1
4465,13,1,392,1
4466,13,1,380,1
4467,13,2,511,1
4468,13,2,469,1
4469,13,2,533,1
4470,13,2,594,1
4471,13,2,493,1
4472,13,1,524,1
4473,13,1,434,1
4474,13,2,499,1
4475,13,2,578,1
4476,13,2,485,1
4477,13,2,557,1
4478,13,1,497,1
4479,13,1,448,1
4640,14,2,673,1
4641,14,1,505,1
4642,14,2,536,1
4643,14,1,525,1
4644,14,2,715,1
4645,14,2,560,1
4646,14,2,628,1
4647,14,1,542,1
4648,14,2,787,1
4649,14,1,862,1
4650,14,2,598,1
4651,14,2,625,1
4652,14,2,451,1
4653,14,1,596,1
4654,14,1,519,1
4655,14,2,669,1
4656,14,1,685,1
4657,14,1,604,1
4658,14,2,535,1
4659,14,2,564,1
4660,14,1,648,1
4661,14,2,593,1
4662,14,1,532,1
4663,14,1,601,1
4664,14,1,556,1
4665,14,2,481,1
4666,14,1,544,1
4667,14,1,541,1
4668,14,1,626,1
4669,14,1,523,1
4670,14,2,529,1
4671,14,2,639,1
4768,14,2,561,1
4769,14,1,461,1
4770,14,1,477,1
4771,14,2,516,1
4772,14,1,553,1
4773,14,1,486,1
4774,14,1,989,1
4775,14,2,577,1
4776,14,1,460,1
4777,14,1,460,1
4778,14,2,604,1
4779,14,2,615,1
4780,14,1,713,1
4781,14,1,519,1
4782,14,2,573,1
4783,14,1,897,1
4784,14,2,544,1
4785,14,1,405,1
4786,14,2,583,1
4787,14,1,667,1
4788,14,2,475,1
4789,14,2,563,1
4790,14,2,711,1
4791,14,1,581,1
4792,14,2,848,1
4793,14,2,753,1
4794,14,2,606,1
4795,14,1,481,1
4796,14,2,592,1
4797,14,1,571,1
4798,14,1,655,1
4799,14,2,664,1
4896,14,1,544,1
4897,14,2,533,0
4898,14,1,622,1
4899,14,2,552,1
4900,14,1,749,1
4901,14,1,537,1
4902,14,1,830,1
4903,14,1,560,1
4904,14,2,708,1
4905,14,2,1027,1
4906,14,2,852,1
4907,14,1,597,1
4908,14,2,696,1
4909,14,2,806,1
4910,14,2,529,1
4911,14,1,583,1
4912,14,2,554,1
4913,14,2,463,1
4914,14,2,671,1
4915,14,1,591,1
4916,14,2,674,1
4917,14,1,666,1
4918,14,2,634,1
4919,14,1,628,1
4920,14,2,685,1
4921,14,1,909,1
4922,14,1,915,1
4923,14,1,650,1
4924,14,1,450,1
4925,14,1,651,1
4926,14,2,636,1
4927,14,2,597,1
5024,14,2,642,1
5025,14,2,851,1
5026,14,2,644,1
5027,14,1,597,1
5028,14,2,672,1
5029,14,2,719,1
5030,14,1,565,1
5031,14,2,633,1
5032,14,1,722,1
5033,14,1,504,1
5034,14,2,527,1
5035,14,2,596,1
5036,14,1,599,1
5037,14,1,514,1
5038,14,2,712,1
5039,14,1,726,1
5040,14,2,747,1
5041,14,1,624,1
5042,14,1,962,1
5043,14,2,702,1
5044,14,1,581,1
5045,14,2,713,1
5046,14,1,727,1
5047,14,1,604,1
5048,14,2,783,1
5049,14,2,746,1
5050,14,1,919,1
5051,14,1,485,1
5052,14,1,565,1
5053,14,1,473,1
5054,14,2,657,1
5055,14,2,633,1
5152,14,1,504,1
5153,14,1,471,1
5154,14,1,599,1
5155,14,1,506,1
5156,14,1,1001,1
5157,14,2,715,1
5158,14,1,602,1
5159,14,1,644,1
5160,14,2,701,1
5161,14,2,652,1
5162,14,2,563,1
5163,14,1,600,1
5164,14,2,642,1
5165,14,2,683,1
5166,14,2,658,1
5167,14,1,611,1
5168,14,1,661,1
5169,14,2,613,1
5170,14,2,655,1
5171,14,2,664,1
5172,14,2,584,1
5173,14,1,652,1
5174,14,1,644,1
5175,14,2,861,1
5176,14,2,613,1
5177,14,2,1335,1
5178,14,2,533,1
5179,14,1,658,1
5180,14,2,827,1
5181,14,1,516,1
5182,14,1,539,1
5183,14,1,512,1
5280,14,2,600,0
5281,14,2,487,1
5282,14,1,543,1
5283,14,2,692,1
5284,14,1,564,1
5285,14,1,616,1
5286,14,1,594,1
5287,14,2,596,1
5288,14,2,623,1
5289,14,1,600,1
5290,14,2,579,1
5291,14,1,622,0
5292,14,1,621,1
5293,14,1,615,1
5294,14,1,521,1
5295,14,2,1079,1
5296,14,1,551,1
5297,14,2,715,1
5298,14,2,681,1
5299,14,2,609,1
5300,14,1,628,1
5301,14,2,533,1
5302,14,1,602,1
5303,14,1,597,1
5304,14,1,536,1
5305,14,2,853,1
5306,14,2,574,1
5307,14,2,626,1
5308,14,2,531,1
5309,14,1,585,1
5310,14,1,508,1
5311,14,2,611,1
5568,15,1,524,1
5569,15,2,570,1
5570,15,2,614,1
5571,15,1,480,1
5572,15,1,526,1
5573,15,1,580,1
5574,15,2,527,1
5575,15,1,540,1
5576,15,1,426,1
5577,15,1,419,1
5578,15,2,469,1
5579,15,2,541,1
5580,15,2,538,1
5581,15,1,464,1
5582,15,1,512,1
5583,15,2,550,1
5584,15,2,547,1
5585,15,2,599,1
5586,15,2,498,1
5587,15,1,441,1
5588,15,2,362,1
5589,15,1,382,1
5590,15,2,593,1
5591,15,2,516,1
5592,15,1,714,1
5593,15,1,440,1
5594,15,1,882,1
5595,15,2,2753,1
5596,15,2,1054,1
5597,15,1,511,1
5598,15,2,477,1
5599,15,1,797,1
5696,15,1,521,1
5697,15,2,655,1
5698,15,1,464,1
5699,15,1,616,1
5700,15,1,450,1
5701,15,2,618,1
5702,15,2,389,1
5703,15,2,496,1
5704,15,1,447,1
5705,15,1,479,1
5706,15,1,463,1
5707,15,1,487,1
5708,15,2,590,1
5709,15,1,449,1
5710,15,2,482,1
5711,15,1,553,1
5712,15,2,558,1
5713,15,1,747,1
5714,15,2,496,1
5715,15,1,614,1
5716,15,2,384,1
5717,15,1,444,1
5718,15,2,508,1
5719,15,1,467,1
5720,15,2,643,1
5721,15,1,460,1
5722,15,2,491,1
5723,15,2,475,1
5724,15,1,499,1
5725,15,2,417,1
5726,15,2,419,1
5727,15,2,349,1
5824,15,2,3022,1
5825,15,1,520,1
5826,15,2,542,1
5827,15,2,363,1
5828,15,2,447,1
5829,15,2,552,1
5830,15,1,405,1
5831,15,1,455,1
5832,15,1,424,1
5833,15,2,466,1
5834,15,1,410,1
5835,15,1,372,1
5836,15,1,392,0
5837,15,2,568,1
5838,15,1,460,1
5839,15,2,348,1
5840,15,1,592,1
5841,15,1,460,1
5842,15,2,524,1
5843,15,1,722,1
5844,15,1,368,1
5845,15,2,628,1
5846,15,1,525,1
5847,15,2,499,1
5848,15,2,394,1
5849,15,1,421,1
5850,15,2,543,1
5851,15,1,468,1
5852,15,2,404,1
5853,15,2,343,1
5854,15,2,420,1
5855,15,1,806,1
5952,15,1,426,1
5953,15,1,428,1
5954,15,2,541,1
5955,15,1,418,1
5956,15,1,364,1
5957,15,2,511,1
5958,15,2,405,1
5959,15,1,392,1
5960,15,2,347,0
5961,15,2,541,1
5962,15,1,474,1
5963,15,1,434,1
5964,15,1,515,1
5965,15,2,441,1
5966,15,1,443,1
5967,15,2,403,1
5968,15,2,534,1
5969,15,2,499,1
5970,15,2,562,1
5971,15,1,670,1
5972,15,1,710,1
5973,15,1,516,1
5974,15,2,554,1
5975,15,1,423,1
5976,15,1,417,0
5977,15,2,703,1
5978,15,2,558,1
5979,15,2,459,1
5980,15,2,420,1
5981,15,2,494,1
5982,15,1,468,1
5983,15,1,484,1
6080,15,1,521,1
6081,15,2,455,1
6082,15,2,464,1
6083,15,1,504,1
6084,15,1,503,1
6085,15,1,453,1
6086,15,2,470,1
6087,15,2,462,1
6088,15,1,478,1
6089,15,2,526,1
6090,15,2,540,1
6091,15,1,529,1
6092,15,2,430,1
6093,15,1,408,1
6094,15,1,354,1
6095,15,2,567,1
6096,15,2,355,0
6097,15,1,476,1
6098,15,2,412,1
6099,15,1,478,1
6100,15,1,438,1
6101,15,1,447,1
6102,15,1,360,1
6103,15,1,396,0
6104,15,2,515,1
6105,15,2,552,1
6106,15,2,469,1
6107,15,1,413,1
6108,15,1,551,1
6109,15,2,452,0
6110,15,2,585,1
6111,15,2,420,1
6208,15,1,655,1
6209,15,2,448,0
6210,15,1,581,1
6211,15,2,449,1
6212,15,1,809,1
6213,15,2,332,1
6214,15,2,569,1
6215,15,2,493,1
6216,15,2,508,1
6217,15,2,338,1
6218,15,2,480,1
6219,15,1,463,1
6220,15,1,439,1
6221,15,1,504,0
6222,15,1,499,1
6223,15,1,434,1
6224,15,1,580,1
6225,15,1,519,0
6226,15,2,449,0
6227,15,1,567,1
6228,15,1,443,1
6229,15,1,644,1
6230,15,2,453,1
6231,15,1,413,1
6232,15,2,471,1
6233,15,2,463,1
6234,15,2,551,1
6235,15,2,476,1
6236,15,1,404,1
6237,15,2,703,1
6238,15,1,390,1
6239,15,2,481,1
6400,16,2,834,1
6401,16,1,451,1
6402,16,2,476,1
6403,16,1,347,1
6404,16,1,400,1
6405,16,2,475,1
6406,16,2,531,1
6407,16,1,416,1
6408,16,1,370,1
6409,16,1,382,1
6410,16,2,489,0
6411,16,2,613,1
6412,16,1,479,1
6413,16,2,559,1
6414,16,2,395,1
6415,16,1,438,1
6416,16,1,455,1
6417,16,1,432,1
6418,16,1,441,1
6419,16,2,451,1
6420,16,1,483,1
6421,16,2,419,1
6422,16,1,517,1
6423,16,2,418,1
6424,16,2,476,1
6425,16,1,459,1
6426,16,1,547,1
6427,16,2,632,1
6428,16,2,473,1
6429,16,2,457,1
6430,16,1,506,1
6431,16,2,521,1
6528,16,2,621,1
6529,16,1,423,1
6530,16,2,489,1
6531,16,1,392,1
6532,16,2,427,1
6533,16,1,373,1
6534,16,2,537,1
6535,16,1,342,1
6536,16,1,403,1
6537,16,1,406,1
6538,16,2,393,1
6539,16,2,396,1
6540,16,1,399,1
6541,16,1,361,1
6542,16,2,349,0
6543,16,1,477,1
6544,16,2,429,1
6545,16,2,486,1
6546,16,1,445,1
6547,16,1,462,1
6548,16,1,502,1
6549,16,1,461,1
6550,16,1,349,1
6551,16,2,330,1
6552,16,1,383,1
6553,16,2,418,1
6554,16,2,532,1
6555,16,1,425,1
6556,16,2,371,0
6557,16,2,500,1
6558,16,2,435,1
6559,16,2,548,1
6656,16,1,432,1
6657,16,2,546,1
6658,16,2,534,1
6659,16,1,404,1
6660,16,2,430,1
6661,16,2,376,1
6662,16,1,468,1
6663,16,2,612,1
6664,16,1,390,1
6665,16,1,465,1
6666,16,2,433,1
6667,16,2,442,1
6668,16,1,404,1
6669,16,1,342,1
6670,16,1,356,1
6671,16,1,408,1
6672,16,1,363,1
6673,16,1,455,1
6674,16,1,392,1
6675,16,1,323,1
6676,16,2,473,1
6677,16,1,369,1
6678,16,2,461,0
6679,16,2,434,1
6680,16,2,403,1
6681,16,2,454,0
6682,16,2,507,1
6683,16,1,417,1
6684,16,2,419,1
6685,16,1,421,1
6686,16,2,407,1
6687,16,2,378,1
6784,16,1,593,1
6785,16,1,436,1
6786,16,2,525,1
6787,16,1,395,1
6788,16,1,358,1
6789,16,1,434,1
6790,16,2,396,1
6791,16,2,462,1
6792,16,2,518,1
6793,16,2,476,1
6794,16,2,404,1
6795,16,1,366,1
6796,16,1,402,1
6797,16,1,373,1
6798,16,2,441,1
6799,16,2,482,1
6800,16,2,450,1
6801,16,2,442,1
6802,16,1,460,1
6803,16,1,380,1
6804,16,1,423,1
6805,16,2,425,0
6806,16,2,456,1
6807,16,2,520,1
6808,16,2,414,1
6809,16,1,408,1
6810,16,1,419,1
6811,16,2,341,1
6812,16,1,402,1
6813,16,2,549,1
6814,16,1,394,1
6815,16,1,356,1
6912,16,1,492,1
6913,16,1,451,1
6914,16,2,404,1
6915,16,2,470,1
6916,16,2,494,1
6917,16,1,549,1
6918,16,1,466,1
6919,16,2,538,1
6920,16,2,550,1
6921,16,2,483,1
6922,16,2,482,1
6923,16,2,490,1
6924,16,2,537,1
6925,16,1,462,1
6926,16,2,502,1
6927,16,1,509,1
6928,16,1,427,1
6929,16,2,452,1
6930,16,2,445,1
6931,16,2,406,1
6932,16,2,520,1
6933,16,1,430,1
6934,16,2,448,1
6935,16,1,424,1
6936,16,1,386,1
6937,16,1,398,1
6938,16,1,416,1
6939,16,2,426,1
6940,16,1,404,1
6941,16,1,374,1
6942,16,1,434,1
6943,16,1,444,1
7040,16,2,490,1
7041,16,2,465,1
7042,16,1,337,1
7043,16,1,399,1
7044,16,2,441,1
7045,16,2,379,1
7046,16,1,438,1
7047,16,2,375,0
7048,16,1,360,1
7049,16,1,364,1
7050,16,2,544,1
7051,16,1,396,1
7052,16,2,495,1
7053,16,2,478,1
7054,16,1,445,1
7055,16,2,422,1
7056,16,2,592,1
7057,16,1,363,1
7058,16,2,519,1
7059,16,2,429,1
7060,16,1,431,1
7061,16,1,400,1
7062,16,2,467,1
7063,16,2,467,1
7064,16,1,459,1
7065,16,2,411,1
7066,16,1,421,1
7067,16,1,383,1
7068,16,1,418,1
7069,16,2,469,1
7070,16,1,404,1
7071,16,1,406,1
7392,17,1,472,1
7393,17,1,368,1
7394,17,1,532,1
7395,17,2,449,1
7396,17,1,610,1
7397,17,1,388,1
7398,17,1,407,1
7399,17,1,482,1
7400,17,2,505,1
7401,17,2,584,1
7402,17,2,483,1
7403,17,1,363,1
7404,17,2,455,1
7405,17,1,439,1
7406,17,2,905,1
7407,17,2,447,1
7408,17,1,704,1
7409,17,1,831,1
7410,17,1,400,1
7411,17,1,387,1
7412,17,2,606,1
7413,17,2,513,1
7414,17,2,575,1
7415,17,2,691,1
7416,17,2,1586,1
7417,17,2,422,1
7418,17,2,1248,1
7419,17,1,425,1
7420,17,2,483,1
7421,17,2,442,1
7422,17,1,788,1
7423,17,1,511,1
7520,17,1,746,1
7521,17,2,487,1
7522,17,2,1238,1
7523,17,2,480,1
7524,17,2,639,1
7525,17,1,376,1
7526,17,2,388,1
7527,17,2,439,1
7528,17,1,368,1
7529,17,1,412,1
7530,17,1,614,1
7531,17,2,544,1
7532,17,1,389,1
7533,17,1,2064,0
7534,17,1,669,0
7535,17,2,778,1
7536,17,1,380,1
7537,17,2,656,1
7538,17,1,489,1
7539,17,2,624,1
7540,17,1,834,1
7541,17,1,587,1
7542,17,2,535,1
7543,17,2,460,1
7544,17,1,452,1
7545,17,1,461,1
7546,17,2,869,1
7547,17,2,893,1
7548,17,1,556,1
7549,17,1,673,1
7550,17,2,529,1
7551,17,2,558,1
7648,17,2,1413,1
7649,17,2,440,1
7650,17,1,401,1
7651,17,1,420,1
7652,17,1,446,1
7653,17,2,510,1
7654,17,2,1172,1
7655,17,1,369,1
7656,17,1,389,1
7657,17,1,680,1
7658,17,2,519,1
7659,17,1,909,1
7660,17,1,436,1
7661,17,2,781,1
7662,17,2,704,1
7663,17,2,471,1
7664,17,1,599,1
7665,17,2,434,1
7666,17,2,1531,1
7667,17,2,369,1
7668,17,1,397,1
7669,17,1,408,1
7670,17,2,490,1
7671,17,2,522,1
7672,17,1,464,1
7673,17,2,456,1
7674,17,1,432,1
7675,17,1,442,1
7676,17,2,1379,1
7677,17,2,535,1
7678,17,1,1036,1
7679,17,1,438,1
7776,17,2,1285,1
7777,17,2,524,1
7778,17,1,434,1
7779,17,1,708,1
7780,17,1,498,1
7781,17,2,593,1
7782,17,1,428,1
7783,17,2,509,1
7784,17,2,452,1
7785,17,1,477,1
7786,17,2,844,1
7787,17,2,869,1
7788,17,1,445,1
7789,17,1,710,1
7790,17,1,452,1
7791,17,1,1572,1
7792,17,1,377,1
7793,17,2,516,1
7794,17,2,626,1
7795,17,1,596,0
7796,17,1,1338,1
7797,17,1,472,1
7798,17,2,464,1
7799,17,2,560,1
7800,17,2,708,1
7801,17,1,387,1
7802,17,2,486,1
7803,17,1,701,1
7804,17,2,628,1
7805,17,2,670,1
7806,17,2,686,1
7807,17,1,437,1
7904,17,2,912,1
7905,17,2,445,1
7906,17,1,390,1
7907,17,2,489,1
7908,17,2,928,1
7909,17,2,606,1
7910,17,1,617,1
7911,17,1,411,1
7912,17,2,557,1
7913,17,1,369,1
7914,17,1,405,1
7915,17,2,440,1
7916,17,1,657,1
7917,17,2,418,1
7918,17,2,460,1
7919,17,1,492,1
7920,17,2,516,1
7921,17,1,394,1
7922,17,2,412,1
7923,17,1,342,1
7924,17,1,676,1
7925,17,1,380,1
7926,17,1,1223,1
7927,17,2,465,1
7928,17,1,1009,1
7929,17,2,491,1
7930,17,1,435,1
7931,17,2,492,0
7932,17,2,640,1
7933,17,2,457,1
7934,17,1,794,1
7935,17,1,805,1
8032,17,2,1075,1
8033,17,1,420,1
8034,17,2,734,1
8035,17,1,443,1
8036,17,2,1012,1
8037,17,2,526,1
8038,17,1,620,1
8039,17,1,566,1
8040,17,1,418,1
8041,17,2,756,1
8042,17,1,465,1
8043,17,2,1433,1
8044,17,2,674,1
8045,17,1,619,0
8046,17,1,729,1
8047,17,2,519,1
8048,17,1,621,0
8049,17,2,643,1
8050,17,1,420,1
8051,17,1,454,1
8052,17,2,479,1
8053,17,1,518,1
8054,17,2,708,1
8055,17,2,458,1
8056,17,1,434,1
8057,17,2,1324,1
8058,17,1,474,1
8059,17,1,442,1
8060,17,2,803,1
8061,17,1,502,1
8062,17,2,589,1
8063,17,2,504,1
8224,18,2,662,1
8225,18,2,470,1
8226,18,2,374,1
8227,18,1,506,1
8228,18,1,521,1
8229,18,1,407,1
8230,18,1,418,1
8231,18,1,428,1
8232,18,2,549,1
8233,18,2,490,1
8234,18,1,425,1
8235,18,2,459,1
8236,18,2,460,1
8237,18,1,332,1
8238,18,2,473,1
8239,18,2,473,1
8240,18,1,393,1
8241,18,2,564,1
8242,18,2,472,1
8243,18,2,368,1
8244,18,1,372,1
8245,18,1,384,1
8246,18,1,347,1
8247,18,1,448,1
8248,18,2,456,1
8249,18,2,393,1
8250,18,2,500,1
8251,18,1,451,1
8252,18,1,363,1
8253,18,2,375,1
8254,18,1,419,1
8255,18,1,373,1
8352,18,2,435,1
8353,18,2,373,1
8354,18,2,353,1
8355,18,1,341,1
8356,18,2,363,0
8357,18,1,451,1
8358,18,1,516,1
8359,18,2,386,1
8360,18,1,453,1
8361,18,2,534,1
8362,18,2,507,1
8363,18,1,394,1
8364,18,2,436,1
8365,18,2,438,1
8366,18,1,335,1
8367,18,2,372,1
8368,18,1,488,1
8369,18,2,408,1
8370,18,2,378,1
8371,18,1,358,1
8372,18,2,362,1
8373,18,2,334,1
8374,18,1,372,1
8375,18,1,376,1
8376,18,1,404,1
8377,18,2,686,1
8378,18,1,358,1
8379,18,1,354,1
8380,18,1,510,1
8381,18,2,540,1
8382,18,1,377,1
8383,18,1,509,1
8480,18,2,551,1
8481,18,2,372,1
8482,18,2,368,1
8483,18,1,364,1
8484,18,1,440,1
8485,18,1,457,1
8486,18,1,370,1
8487,18,2,342,1
8488,18,2,339,1
8489,18,2,448,1
8490,18,2,617,1
8491,18,1,347,1
8492,18,2,408,1
8493,18,2,442,1
8494,18,1,435,1
8495,18,1,460,1
8496,18,2,404,1
8497,18,1,359,1
8498,18,2,355,1
8499,18,1,392,1
8500,18,1,355,1
8501,18,1,496,1
8502,18,2,518,1
8503,18,1,388,1
8504,18,1,360,1
8505,18,1,444,1
8506,18,1,372,1
8507,18,2,464,1
8508,18,1,472,1
8509,18,2,424,1
8510,18,2,378,1
8511,18,2,542,1
8608,18,2,399,1
8609,18,2,370,0
8610,18,1,458,1
8611,18,2,491,1
8612,18,1,410,1
8613,18,2,436,1
8614,18,2,454,1
8615,18,1,479,1
8616,18,1,422,1
8617,18,2,432,1
8618,18,1,433,1
8619,18,1,363,1
8620,18,2,847,1
8621,18,2,487,1
8622,18,1,343,1
8623,18,2,387,1
8624,18,2,463,1
8625,18,2,567,1
8626,18,1,355,1
8627,18,1,439,1
8628,18,2,401,1
8629,18,1,403,1
8630,18,1,550,1
8631,18,1,395,1
8632,18,2,965,1
8633,18,1,418,1
8634,18,2,436,1
8635,18,1,445,1
8636,18,1,414,1
8637,18,2,488,1
8638,18,2,487,1
8639,18,1,470,1
8736,18,1,361,1
8737,18,1,389,1
8738,18,2,464,1
8739,18,2,488,1
8740,18,2,431,1
8741,18,2,513,1
8742,18,2,447,1
8743,18,2,423,1
8744,18,1,433,1
8745,18,2,443,1
8746,18,1,411,1
8747,18,2,557,1
8748,18,2,962,1
8749,18,1,374,1
8750,18,1,378,1
8751,18,1,398,1
8752,18,1,464,1
8753,18,1,368,1
8754,18,1,380,1
8755,18,2,456,1
8756,18,2,464,1
8757,18,1,504,1
8758,18,2,431,1
8759,18,2,552,1
8760,18,1,437,1
8761,18,2,438,1
8762,18,1,424,1
8763,18,2,458,1
8764,18,1,362,1
8765,18,2,438,1
8766,18,1,416,1
8767,18,1,410,1
8864,18,2,448,1
8865,18,2,393,1
8866,18,2,404,1
8867,18,2,487,1
8868,18,2,470,1
8869,18,1,446,1
8870,18,2,487,1
8871,18,2,398,1
8872,18,2,400,1
8873,18,1,410,1
8874,18,2,596,1
8875,18,1,439,1
8876,18,2,440,1
8877,18,1,418,1
8878,18,2,460,1
8879,18,1,404,1
8880,18,1,382,1
8881,18,2,490,1
8882,18,1,385,1
8883,18,2,388,1
8884,18,2,480,1
8885,18,1,391,1
8886,18,1,434,1
8887,18,1,380,1
8888,18,1,367,1
8889,18,2,427,1
8890,18,1,380,1
8891,18,1,408,1
8892,18,2,402,1
8893,18,1,413,1
8894,18,1,351,1
8895,18,1,380,1
9152,19,2,388,1
9153,19,2,455,1
9154,19,2,480,1
9155,19,1,407,1
9156,19,1,410,1
9157,19,1,372,1
9158,19,2,552,1
9159,19,1,389,1
9160,19,2,432,1
9161,19,2,449,1
9162,19,2,434,1
9163,19,1,411,1
9164,19,1,381,1
9165,19,1,377,1
9166,19,2,596,1
9167,19,1,399,1
9168,19,1,353,1
9169,19,1,374,1
9170,19,2,514,1
9171,19,1,432,1
9172,19,2,457,1
9173,19,2,410,0
9174,19,2,496,1
9175,19,1,399,1
9176,19,1,434,1
9177,19,2,419,1
9178,19,2,405,1
9179,19,1,392,1
9180,19,2,435,1
9181,19,1,380,1
9182,19,2,496,1
9183,19,1,438,1
9280,19,2,572,1
9281,19,1,472,1
9282,19,1,488,1
9283,19,1,439,1
9284,19,1,400,1
9285,19,2,395,1
9286,19,1,422,1
9287,19,1,504,1
9288,19,1,430,1
9289,19,2,488,1
9290,19,1,535,1
9291,19,1,380,1
9292,19,2,376,1
9293,19,2,388,1
9294,19,1,383,1
9295,19,1,386,1
9296,19,2,406,1
9297,19,2,400,0
9298,19,2,495,1
9299,19,2,382,1
9300,19,2,377,1
9301,19,1,365,1
9302,19,2,361,1
9303,19,2,405,0
9304,19,1,500,1
9305,19,2,603,1
9306,19,2,477,1
9307,19,2,493,1
9308,19,1,492,1
9309,19,1,451,1
9310,19,2,500,1
9311,19,1,459,1
9408,19,2,616,1
9409,19,2,514,1
9410,19,2,440,1
9411,19,1,441,1
9412,19,2,546,1
9413,19,1,495,1
9414,19,1,470,1
9415,19,1,494,1
9416,19,2,516,1
9417,19,2,490,1
9418,19,1,514,1
9419,19,1,432,1
9420,19,1,384,1
9421,19,2,580,1
9422,19,2,456,1
9423,19,2,559,1
9424,19,2,492,1
9425,19,2,467,1
9426,19,2,475,1
9427,19,2,483,1
9428,19,1,386,1
9429,19,1,510,1
9430,19,2,516,1
9431,19,1,466,1
9432,19,1,482,1
9433,19,1,441,1
9434,19,1,418,1
9435,19,2,436,1
9436,19,1,366,1
9437,19,1,402,1
9438,19,1,436,1
9439,19,2,502,1
9536,19,1,522,1
9537,19,2,776,1
9538,19,1,475,1
9539,19,2,411,1
9540,19,2,405,1
9541,19,2,392,1
9542,19,1,467,1
9543,19,1,379,1
9544,19,1,447,1
9545,19,1,455,1
9546,19,1,448,1
9547,19,1,425,1
9548,19,1,379,1
9549,19,2,494,1
9550,19,2,421,1
9551,19,1,415,1
9552,19,2,489,1
9553,19,1,432,1
9554,19,1,361,1
9555,19,2,389,0
9556,19,1,461,1
9557,19,2,381,1
9558,19,2,512,1
9559,19,2,486,1
9560,19,2,502,1
9561,19,1,508,1
9562,19,2,411,1
9563,19,2,565,1
9564,19,2,553,1
9565,19,2,390,1
9566,19,1,425,1
9567,19,1,419,1
9664,19,2,473,1
9665,19,2,537,1
9666,19,1,518,1
9667,19,1,468,1
9668,19,1,428,1
9669,19,2,606,1
9670,19,2,520,1
9671,19,2,542,1
9672,19,2,484,1
9673,19,2,395,1
9674,19,2,614,1
9675,19,2,512,1
9676,19,1,470,1
9677,19,2,510,1
9678,19,1,596,1
9679,19,1,663,1
9680,19,1,479,1
9681,19,1,518,1
9682,19,2,476,1
9683,19,2,524,1
9684,19,2,474,1
9685,19,1,490,1
9686,19,1,433,1
9687,19,1,427,1
9688,19,2,468,1
9689,19,2,476,1
9690,19,1,500,1
9691,19,1,483,1
9692,19,1,450,1
9693,19,2,475,1
9694,19,1,475,1
9695,19,1,499,1
9792,19,1,439,1
9793,19,2,440,0
9794,19,1,454,1
9795,19,2,535,1
9796,19,2,548,1
9797,19,2,465,1
9798,19,1,537,1
9799,19,2,670,1
9800,19,1,486,1
9801,19,2,470,1
9802,19,2,478,1
9803,19,2,525,1
9804,19,1,523,1
9805,19,2,513,1
9806,19,2,519,1
9807,19,1,477,1
9808,19,2,524,1
9809,19,2,450,1
9810,19,1,443,1
9811,19,1,612,1
9812,19,2,582,1
9813,19,2,425,1
9814,19,1,651,1
9815,19,1,428,1
9816,19,1,429,1
9817,19,2,439,1
9818,19,1,480,1
9819,19,2,494,1
9820,19,1,453,1
9821,19,1,430,1
9822,19,1,511,1
9823,19,1,469,1
10016,2,2,575,1
10017,2,2,379,1
10018,2,2,414,1
10019,2,1,424,1
10020,2,1,426,1
10021,2,1,380,1
10022,2,2,415,1
10023,2,1,345,1
10024,2,1,438,1
10025,2,2,335,0
10026,2,1,521,1
10027,2,1,431,1
10028,2,1,400,1
10029,2,1,411,1
10030,2,2,477,1
10031,2,2,492,1
10032,2,2,484,1
10033,2,1,475,1
10034,2,1,427,1
10035,2,2,453,1
10036,2,2,533,1
10037,2,1,523,1
10038,2,2,481,1
10039,2,2,511,1
10040,2,1,421,1
10041,2,2,423,1
10042,2,2,465,1
10043,2,2,465,1
10044,2,1,425,1
10045,2,2,419,1
10046,2,1,389,1
10047,2,1,432,1
10144,2,1,355,1
10145,2,1,383,1
10146,2,2,371,1
10147,2,1,471,1
10148,2,2,495,1
10149,2,1,429,1
10150,2,2,455,1
10151,2,1,407,1
10152,2,1,418,1
10153,2,2,444,1
10154,2,2,477,1
10155,2,2,420,1
10156,2,2,462,1
10157,2,1,549,1
10158,2,2,434,1
10159,2,2,435,1
10160,2,1,389,1
10161,2,2,416,1
10162,2,1,386,1
10163,2,1,389,1
10164,2,1,369,1
10165,2,2,445,1
10166,2,2,413,1
10167,2,2,431,1
10168,2,1,385,1
10169,2,1,356,1
10170,2,1,393,1
10171,2,1,331,1
10172,2,2,393,0
10173,2,1,424,1
10174,2,2,482,1
10175,2,2,418,1
10272,2,1,487,1
10273,2,2,438,1
10274,2,2,376,1
10275,2,2,388,0
10276,2,1,435,1
10277,2,2,468,1
10278,2,1,436,1
10279,2,2,509,1
10280,2,2,499,1
10281,2,1,458,1
10282,2,2,451,1
10283,2,2,499,1
10284,2,1,434,1
10285,2,1,427,1
10286,2,1,437,1
10287,2,2,462,1
10288,2,1,454,1
10289,2,2,479,1
10290,2,1,470,1
10291,2,1,486,1
10292,2,1,365,1
10293,2,1,417,1
10294,2,1,459,1
10295,2,1,443,1
10296,2,2,460,1
10297,2,1,388,1
10298,2,2,623,1
10299,2,2,394,1
10300,2,2,380,1
10301,2,1,464,1
10302,2,2,480,1
10303,2,2,407,1
10400,2,1,413,1
10401,2,2,407,1
10402,2,1,385,1
10403,2,2,477,1
10404,2,1,332,1
10405,2,2,377,1
10406,2,1,373,1
10407,2,2,417,1
10408,2,2,419,1
10409,2,2,493,1
10410,2,1,372,1
10411,2,2,424,1
10412,2,2,386,1
10413,2,2,469,1
10414,2,2,373,1
10415,2,1,393,1
10416,2,1,348,1
10417,2,1,409,1
10418,2,1,403,1
10419,2,2,374,1
10420,2,1,394,1
10421,2,2,397,1
10422,2,1,471,1
10423,2,1,446,1
10424,2,2,383,1
10425,2,2,426,1
10426,2,1,428,1
10427,2,2,461,1
10428,2,1,445,1
10429,2,1,390,1
10430,2,2,457,1
10431,2,1,450,1
10528,2,1,460,1
10529,2,2,420,0
10530,2,1,466,1
10531,2,1,434,1
10532,2,1,412,1
10533,2,2,438,1
10534,2,2,383,1
10535,2,1,402,1
10536,2,2,525,1
10537,2,1,443,1
10538,2,1,412,1
10539,2,2,446,1
10540,2,1,421,1
10541,2,2,479,1
10542,2,2,439,1
10543,2,1,480,1
10544,2,2,432,1
10545,2,2,425,1
10546,2,1,355,1
10547,2,2,416,1
10548,2,1,490,1
10549,2,1,393,1
10550,2,2,492,1
10551,2,1,355,1
10552,2,2,472,1
10553,2,2,464,1
10554,2,1,424,1
10555,2,2,410,1
10556,2,2,492,1
10557,2,2,523,1
10558,2,1,441,1
10559,2,1,394,1
10656,2,2,461,1
10657,2,2,389,1
10658,2,1,504,1
10659,2,1,374,1
10660,2,1,410,1
10661,2,1,380,1
10662,2,1,480,1
10663,2,2,407,1
10664,2,1,410,1
10665,2,2,436,1
10666,2,1,413,1
10667,2,2,447,1
10668,2,2,424,1
10669,2,2,458,1
10670,2,1,474,1
10671,2,2,547,1
10672,2,2,423,1
10673,2,2,401,1
10674,2,2,428,1
10675,2,1,469,1
10676,2,1,445,1
10677,2,1,358,1
10678,2,2,427,1
10679,2,1,436,1
10680,2,1,389,1
10681,2,2,481,1
10682,2,1,456,1
10683,2,2,537,1
10684,2,2,414,1
10685,2,1,368,1
10686,2,2,452,1
10687,2,1,405,1
10880,20,2,881,1
10881,20,1,448,1
10882,20,1,505,1
10883,20,1,415,1
10884,20,1,449,1
10885,20,2,434,1
10886,20,2,484,1
10887,20,2,507,1
10888,20,2,442,1
10889,20,2,395,1
10890,20,2,510,1
10891,20,1,420,1
10892,20,2,494,1
10893,20,2,428,1
10894,20,2,470,1
10895,20,1,366,1
10896,20,1,466,1
10897,20,1,482,1
10898,20,1,353,1
10899,20,2,358,1
10900,20,1,490,1
10901,20,1,418,1
10902,20,2,388,1
10903,20,2,447,1
10904,20,2,456,1
10905,20,1,448,1
10906,20,1,473,1
10907,20,1,609,1
10908,20,1,404,1
10909,20,2,454,1
10910,20,2,391,1
10911,20,1,410,1
11008,20,1,459,1
11009,20,2,476,1
11010,20,1,508,1
11011,20,1,475,1
11012,20,1,491,1
11013,20,1,434,1
11014,20,2,476,1
11015,20,2,500,1
11016,20,2,466,1
11017,20,1,609,1
11018,20,2,507,1
11019,20,2,418,1
11020,20,2,516,1
11021,20,1,394,1
11022,20,1,525,1
11023,20,2,459,1
11024,20,2,475,1
11025,20,1,403,1
11026,20,1,414,1
11027,20,2,384,1
11028,20,1,379,1
11029,20,2,471,1
11030,20,2,423,1
11031,20,1,377,1
11032,20,1,500,1
11033,20,2,467,1
11034,20,1,339,1
11035,20,2,384,1
11036,20,2,435,1
11037,20,1,381,1
11038,20,1,488,1
11039,20,2,407,1
11136,20,1,636,1
11137,20,1,389,1
11138,20,2,561,1
11139,20,1,341,1
11140,20,1,386,1
11141,20,1,357,1
11142,20,1,362,1
11143,20,1,486,1
11144,20,1,381,1
11145,20,1,376,1
11146,20,2,412,1
11147,20,2,470,1
11148,20,2,438,1
11149,20,2,471,1
11150,20,1,535,1
11151,20,1,357,1
11152,20,1,441,1
11153,20,2,459,1
11154,20,2,387,1
11155,20,1,334,1
11156,20,1,324,1
11157,20,2,410,1
11158,20,1,420,1
11159,20,2,366,1
11160,20,2,458,1
11161,20,2,418,1
11162,20,2,420,1
11163,20,2,358,1
11164,20,2,467,1
11165,20,1,427,1
11166,20,2,372,1
11167,20,2,416,1
11264,20,2,599,1
11265,20,1,450,1
11266,20,2,467,1
11267,20,1,499,1
11268,20,1,449,1
11269,20,2,506,1
11270,20,2,465,1
11271,20,2,425,1
11272,20,2,539,1
11273,20,2,408,1
11274,20,1,411,1
11275,20,1,389,1
11276,20,1,432,1
11277,20,1,418,1
11278,20,1,508,1
11279,20,1,434,1
11280,20,2,420,1
11281,20,1,454,1
11282,20,2,462,1
11283,20,2,470,1
11284,20,1,382,1
11285,20,2,378,1
11286,20,1,437,1
11287,20,2,454,1
11288,20,2,462,1
11289,20,1,431,1
11290,20,2,471,1
11291,20,1,415,1
11292,20,2,409,1
11293,20,1,387,1
11294,20,2,391,1
11295,20,1,418,1
11392,20,2,551,1
11393,20,1,372,1
11394,20,1,432,1
11395,20,2,545,1
11396,20,2,494,1
11397,20,1,388,1
11398,20,1,400,1
11399,20,2,386,1
11400,20,2,470,1
11401,20,2,494,1
11402,20,2,532,1
11403,20,1,442,1
11404,20,1,402,1
11405,20,1,437,1
11406,20,2,446,1
11407,20,2,519,1
11408,20,2,453,1
11409,20,1,405,1
11410,20,2,424,1
11411,20,2,426,1
11412,20,2,491,1
11413,20,2,419,1
11414,20,1,493,1
11415,20,1,395,1
11416,20,1,414,1
11417,20,1,344,1
11418,20,1,357,1
11419,20,2,401,1
11420,20,1,396,1
11421,20,2,351,1
11422,20,1,427,1
11423,20,1,477,1
11520,20,2,564,1
11521,20,2,448,1
11522,20,2,400,1
11523,20,2,363,1
11524,20,1,391,1
11525,20,1,394,1
11526,20,1,341,1
11527,20,1,354,1
11528,20,2,415,0
11529,20,2,541,1
11530,20,2,467,1
11531,20,1,539,1
11532,20,2,432,1
11533,20,2,434,1
11534,20,1,419,1
11535,20,2,453,1
11536,20,1,438,1
11537,20,1,439,1
11538,20,1,472,1
11539,20,1,464,1
11540,20,1,480,1
11541,20,1,408,1
11542,20,2,458,1
11543,20,2,555,1
11544,20,2,424,1
11545,20,2,490,1
11546,20,1,457,1
11547,20,2,450,1
11548,20,1,458,1
11549,20,2,395,1
11550,20,1,422,1
11551,20,1,488,1
11872,21,1,703,1
11873,21,2,526,1
11874,21,1,476,1
11875,21,2,460,1
11876,21,1,460,1
11877,21,1,452,1
11878,21,2,413,1
11879,21,2,543,1
11880,21,2,556,1
11881,21,2,473,1
11882,21,2,409,1
11883,21,1,564,0
11884,21,1,588,1
11885,21,1,439,1
11886,21,2,536,1
11887,21,1,613,1
11888,21,1,439,1
11889,21,2,457,1
11890,21,1,489,1
11891,21,1,417,1
11892,21,2,587,1
11893,21,2,486,1
11894,21,1,445,1
11895,21,1,422,1
11896,21,2,376,1
11897,21,2,411,1
11898,21,2,677,1
11899,21,1,533,1
11900,21,2,474,1
11901,21,1,426,1
11902,21,1,387,1
11903,21,2,447,1
12000,21,1,674,1
12001,21,2,498,1
12002,21,1,473,1
12003,21,2,961,1
12004,21,1,461,1
12005,21,2,541,1
12006,21,1,562,1
12007,21,1,430,1
12008,21,2,504,1
12009,21,1,422,1
12010,21,2,712,0
12011,21,1,795,1
12012,21,2,718,1
12013,21,1,444,1
12014,21,2,628,1
12015,21,1,446,1
12016,21,1,454,1
12017,21,2,655,1
12018,21,1,392,1
12019,21,2,435,1
12020,21,2,509,1
12021,21,1,395,1
12022,21,1,382,1
12023,21,2,449,1
12024,21,1,578,1
12025,21,2,477,1
12026,21,2,589,1
12027,21,2,480,1
12028,21,1,415,1
12029,21,2,425,1
12030,21,2,475,1
12031,21,1,579,1
12128,21,2,728,1
12129,21,1,534,1
12130,21,1,491,1
12131,21,2,506,1
12132,21,1,417,1
12133,21,1,467,1
12134,21,1,483,1
12135,21,1,562,1
12136,21,1,455,1
12137,21,1,431,1
12138,21,2,841,1
12139,21,2,578,1
12140,21,2,533,1
12141,21,2,499,1
12142,21,2,545,1
12143,21,1,678,1
12144,21,2,502,1
12145,21,2,516,1
12146,21,1,538,1
12147,21,1,488,1
12148,21,2,455,1
12149,21,1,432,1
12150,21,2,505,1
12151,21,2,520,1
12152,21,1,526,0
12153,21,2,696,1
12154,21,2,487,1
12155,21,2,486,1
12156,21,2,518,1
12157,21,1,492,1
12158,21,1,483,1
12159,21,1,426,1
12256,21,2,1170,1
12257,21,1,582,1
12258,21,1,481,1
12259,21,2,609,1
12260,21,1,380,1
12261,21,1,439,1
12262,21,1,472,1
12263,21,1,464,1
12264,21,2,488,1
12265,21,1,472,1
12266,21,2,456,1
12267,21,2,416,1
12268,21,1,602,0
12269,21,2,730,1
12270,21,2,647,1
12271,21,2,624,1
12272,21,1,554,1
12273,21,2,742,1
12274,21,1,684,1
12275,21,2,579,1
12276,21,2,479,1
12277,21,2,598,1
12278,21,1,633,1
12279,21,2,681,1
12280,21,2,593,1
12281,21,1,1195,1
12282,21,2,558,1
12283,21,2,507,1
12284,21,1,642,1
12285,21,1,499,1
12286,21,1,490,1
12287,21,1,457,1
12384,21,2,483,1
12385,21,1,434,1
12386,21,1,436,1
12387,21,2,477,1
12388,21,2,516,1
12389,21,2,466,1
12390,21,2,434,1
12391,21,1,452,1
12392,21,2,436,1
12393,21,2,438,1
12394,21,2,487,1
12395,21,2,494,1
12396,21,2,485,1
12397,21,1,388,1
12398,21,2,480,1
12399,21,1,375,1
12400,21,1,955,1
12401,21,1,464,1
12402,21,2,688,1
12403,21,1,391,1
12404,21,1,955,1
12405,21,1,479,1
12406,21,2,623,1
12407,21,2,489,1
12408,21,1,368,1
12409,21,1,692,1
12410,21,2,476,1
12411,21,1,500,1
12412,21,1,618,1
12413,21,2,580,1
12414,21,1,440,1
12415,21,1,433,1
12512,21,2,725,1
12513,21,2,451,1
12514,21,1,500,1
12515,21,2,715,1
12516,21,1,513,1
12517,21,2,639,1
12518,21,2,448,1
12519,21,2,457,1
12520,21,1,410,1
12521,21,1,484,1
12522,21,2,731,1
12523,21,1,480,1
12524,21,1,456,1
12525,21,1,376,1
12526,21,1,364,1
12527,21,1,464,1
12528,21,1,456,1
12529,21,2,648,1
12530,21,1,401,1
12531,21,2,524,1
12532,21,1,450,1
12533,21,2,443,1
12534,21,2,500,1
12535,21,2,538,1
12536,21,1,456,1
12537,21,2,400,1
12538,21,2,490,1
12539,21,1,546,1
12540,21,1,598,1
12541,21,1,569,1
12542,21,2,597,1
12543,21,2,552,1
12704,22,2,501,1
12705,22,2,644,1
12706,22,2,612,1
12707,22,1,470,1
12708,22,2,710,1
12709,22,1,557,1
12710,22,2,545,1
12711,22,1,702,1
12712,22,2,709,1
12713,22,1,395,1
12714,22,2,582,1
12715,22,1,378,1
12716,22,1,605,1
12717,22,2,584,1
12718,22,2,707,1
12719,22,1,498,1
12720,22,1,496,1
12721,22,1,415,1
12722,22,2,1089,1
12723,22,2,585,1
12724,22,1,420,1
12725,22,2,622,1
12726,22,1,512,1
12727,22,2,646,1
12728,22,2,863,1
12729,22,1,727,1
12730,22,1,660,1
12731,22,1,548,1
12732,22,2,697,1
12733,22,1,624,1
12734,22,2,793,1
12735,22,1,564,1
12832,22,2,872,1
12833,22,1,496,1
12834,22,2,575,1
12835,22,2,491,1
12836,22,1,434,1
12837,22,2,483,1
12838,22,2,491,1
12839,22,1,761,1
12840,22,1,829,1
12841,22,1,727,1
12842,22,1,420,1
12843,22,2,710,1
12844,22,1,556,1
12845,22,1,729,1
12846,22,2,606,1
12847,22,1,529,1
12848,22,2,526,1
12849,22,1,436,1
12850,22,2,421,1
12851,22,1,567,1
12852,22,2,595,1
12853,22,2,446,1
12854,22,1,447,1
12855,22,1,831,1
12856,22,2,457,1
12857,22,2,441,1
12858,22,2,595,1
12859,22,2,573,1
12860,22,1,562,1
12861,22,1,478,1
12862,22,1,493,1
12863,22,2,524,1
12960,22,1,378,1
12961,22,1,462,1
12962,22,2,598,1
12963,22,2,544,1
12964,22,2,613,1
12965,22,1,351,1
12966,22,2,444,1
12967,22,1,436,1
12968,22,2,358,1
12969,22,1,362,1
12970,22,2,358,0
12971,22,1,512,1
12972,22,2,582,1
12973,22,2,713,1
12974,22,1,375,1
12975,22,1,427,1
12976,22,1,428,1
12977,22,1,606,1
12978,22,2,536,1
12979,22,2,502,1
12980,22,1,421,1
12981,22,2,519,1
12982,22,2,445,1
12983,22,2,461,1
12984,22,1,437,1
12985,22,1,543,1
12986,22,1,508,1
12987,22,2,483,1
12988,22,1,450,1
12989,22,2,459,1
12990,22,2,483,1
12991,22,1,451,1
13088,22,1,526,1
13089,22,2,564,1
13090,22,1,568,1
13091,22,2,508,1
13092,22,1,443,1
13093,22,2,364,1
13094,22,2,504,1
13095,22,2,551,1
13096,22,2,587,1
13097,22,2,407,1
13098,22,2,577,1
13099,22,2,445,1
13100,22,1,421,1
13101,22,1,439,1
13102,22,2,609,1
13103,22,1,643,1
13104,22,1,476,1
13105,22,2,604,1
13106,22,1,415,1
13107,22,2,401,1
13108,22,2,380,1
13109,22,1,391,0
13110,22,1,487,1
13111,22,2,534,1
13112,22,1,507,1
13113,22,1,514,1
13114,22,1,488,1
13115,22,2,600,1
13116,22,1,498,1
13117,22,2,616,1
13118,22,1,435,1
13119,22,1,563,1
13216,22,2,647,1
13217,22,2,656,1
13218,22,1,560,1
13219,22,1,612,1
13220,22,1,479,1
13221,22,1,510,1
13222,22,2,556,1
13223,22,1,825,1
13224,22,2,979,1
13225,22,2,717,1
13226,22,2,619,1
13227,22,2,605,1
13228,22,1,424,1
13229,22,1,458,1
13230,22,1,483,1
13231,22,2,562,1
13232,22,1,622,1
13233,22,1,560,1
13234,22,2,716,1
13235,22,2,554,1
13236,22,2,471,1
13237,22,1,631,1
13238,22,1,553,1
13239,22,1,509,1
13240,22,2,635,1
13241,22,1,461,1
13242,22,2,461,1
13243,22,2,445,1
13244,22,1,525,1
13245,22,1,683,1
13246,22,2,507,1
13247,22,2,714,1
13344,22,1,484,1
13345,22,1,427,1
13346,22,1,365,1
13347,22,1,552,1
13348,22,2,533,1
13349,22,1,555,1
13350,22,2,623,1
13351,22,1,489,1
13352,22,2,449,1
13353,22,1,481,1
13354,22,1,481,1
13355,22,2,440,1
13356,22,2,617,1
13357,22,1,323,1
13358,22,1,481,1
13359,22,2,385,1
13360,22,1,452,1
13361,22,2,573,1
13362,22,2,545,1
13363,22,1,542,1
13364,22,2,515,1
13365,22,1,497,1
13366,22,1,488,1
13367,22,2,695,1
13368,22,2,566,1
13369,22,2,610,1
13370,22,2,476,1
13371,22,1,588,1
13372,22,2,591,1
13373,22,2,611,1
13374,22,1,645,1
13375,22,2,597,1
13632,23,2,921,1
13633,23,2,455,1
13634,23,1,608,1
13635,23,2,570,1
13636,23,1,405,1
13637,23,2,520,1
13638,23,2,518,1
13639,23,1,548,1
13640,23,2,497,1
13641,23,1,872,1
13642,23,1,640,1
13643,23,1,457,1
13644,23,1,594,1
13645,23,2,517,1
13646,23,1,531,1
13647,23,1,456,1
13648,23,1,545,1
13649,23,2,589,1
13650,23,1,553,1
13651,23,1,509,1
13652,23,1,499,1
13653,23,2,538,1
13654,23,2,631,1
13655,23,1,441,1
13656,23,2,498,1
13657,23,2,497,1
13658,23,2,432,1
13659,23,2,521,1
13660,23,2,495,1
13661,23,2,502,1
13662,23,1,436,1
13663,23,1,406,1
13760,23,1,883,1
13761,23,1,410,1
13762,23,1,396,1
13763,23,2,535,1
13764,23,2,388,0
13765,23,2,1476,1
13766,23,1,356,1
13767,23,1,312,1
13768,23,2,382,1
13769,23,1,426,1
13770,23,1,404,1
13771,23,1,358,1
13772,23,2,547,1
13773,23,1,408,1
13774,23,2,498,1
13775,23,2,553,1
13776,23,2,574,1
13777,23,2,450,1
13778,23,2,498,1
13779,23,1,537,1
13780,23,2,535,1
13781,23,2,452,1
13782,23,1,373,1
13783,23,1,425,1
13784,23,1,339,1
13785,23,2,488,1
13786,23,2,439,0
13787,23,2,821,1
13788,23,1,487,1
13789,23,2,551,1
13790,23,1,403,1
13791,23,1,438,1
13888,23,1,1038,1
13889,23,2,487,1
13890,23,1,487,1
13891,23,2,534,1
13892,23,2,604,1
13893,23,2,526,1
13894,23,1,540,1
13895,23,2,521,1
13896,23,2,471,1
13897,23,2,463,1
13898,23,2,495,1
13899,23,1,518,1
13900,23,1,492,1
13901,23,1,467,1
13902,23,2,459,1
13903,23,1,540,1
13904,23,2,505,1
13905,23,2,504,1
13906,23,2,527,1
13907,23,2,524,1
13908,23,1,458,1
13909,23,1,515,1
13910,23,2,537,1
13911,23,2,501,1
13912,23,1,452,1
13913,23,1,468,1
13914,23,2,508,1
13915,23,1,363,1
13916,23,1,471,0
13917,23,1,1036,1
13918,23,1,453,1
13919,23,1,630,1
14016,23,2,1101,1
14017,23,1,428,1
14018,23,2,446,1
14019,23,1,430,1
14020,23,1,456,1
14021,23,1,416,1
14022,23,1,434,1
14023,23,2,499,1
14024,23,1,457,1
14025,23,2,562,1
14026,23,1,534,1
14027,23,2,507,1
14028,23,1,442,1
14029,23,2,523,1
14030,23,2,433,1
14031,23,1,443,1
14032,23,2,499,0
14033,23,1,519,1
14034,23,1,397,1
14035,23,2,527,1
14036,23,1,461,1
14037,23,2,549,1
14038,23,2,657,1
14039,23,1,498,1
14040,23,2,473,1
14041,23,1,537,1
14042,23,2,510,1
14043,23,2,524,1
14044,23,1,498,1
14045,23,2,505,1
14046,23,2,496,1
14047,23,1,446,1
14144,23,2,731,1
14145,23,1,520,1
14146,23,1,454,1
14147,23,1,463,1
14148,23,2,695,1
14149,23,1,509,1
14150,23,2,467,1
14151,23,1,579,1
14152,23,2,495,1
14153,23,1,598,1
14154,23,1,512,1
14155,23,2,558,1
14156,23,2,475,1
14157,23,1,619,1
14158,23,2,517,1
14159,23,1,427,1
14160,23,2,540,1
14161,23,2,482,1
14162,23,2,481,1
14163,23,2,545,1
14164,23,2,373,1
14165,23,2,457,1
14166,23,2,442,1
14167,23,1,355,1
14168,23,1,304,1
14169,23,1,494,1
14170,23,1,461,0
14171,23,1,474,1
14172,23,1,378,1
14173,23,2,421,0
14174,23,1,468,1
14175,23,2,532,1
14272,23,1,627,1
14273,23,1,501,1
14274,23,2,547,1
14275,23,2,488,1
14276,23,1,648,1
14277,23,2,560,1
14278,23,1,580,1
14279,23,1,496,1
14280,23,2,510,1
14281,23,1,492,1
14282,23,2,444,1
14283,23,1,468,1
14284,23,2,444,1
14285,23,1,485,1
14286,23,1,517,1
14287,23,1,483,1
14288,23,2,514,1
14289,23,1,432,1
14290,23,2,409,1
14291,23,2,436,1
14292,23,2,485,1
14293,23,2,445,0
14294,23,1,570,1
14295,23,1,406,1
14296,23,2,487,1
14297,23,1,423,1
14298,23,2,481,1
14299,23,1,448,1
14300,23,2,417,1
14301,23,2,451,1
14302,23,2,444,1
14303,23,1,412,1
14464,24,2,355,1
14465,24,2,447,0
14466,24,1,444,1
14467,24,2,493,1
14468,24,2,540,1
14469,24,1,369,1
14470,24,1,429,1
14471,24,1,503,1
14472,24,2,469,1
14473,24,1,325,1
14474,24,2,387,0
14475,24,2,363,1
14476,24,2,567,1
14477,24,2,387,1
14478,24,2,502,1
14479,24,2,365,1
14480,24,1,513,1
14481,24,2,319,1
14482,24,1,429,1
14483,24,1,470,1
14484,24,1,886,1
14485,24,1,421,1
14486,24,1,375,1
14487,24,1,419,1
14488,24,1,421,1
14489,24,1,455,1
14490,24,1,376,1
14491,24,2,451,0
14492,24,1,553,1
14493,24,2,357,0
14494,24,2,415,1
14495,24,2,385,1
14592,24,1,388,1
14593,24,2,407,1
14594,24,2,314,1
14595,24,2,392,1
14596,24,1,339,0
14597,24,2,333,0
14598,24,2,471,1
14599,24,1,487,1
14600,24,2,398,0
14601,24,1,381,1
14602,24,1,360,1
14603,24,2,444,1
14604,24,1,461,1
14605,24,2,525,1
14606,24,1,395,1
14607,24,2,478,1
14608,24,2,693,1
14609,24,2,444,1
14610,24,1,525,1
14611,24,1,579,1
14612,24,2,446,1
14613,24,1,479,1
14614,24,1,446,1
14615,24,1,431,1
14616,24,1,472,1
14617,24,2,568,1
14618,24,1,556,1
14619,24,2,473,1
14620,24,1,409,1
14621,24,1,403,1
14622,24,2,454,1
14623,24,2,351,1
14720,24,1,421,1
14721,24,2,423,1
14722,24,1,369,1
14723,24,2,389,1
14724,24,2,328,0
14725,24,2,338,1
14726,24,2,486,1
14727,24,1,358,1
14728,24,1,378,1
14729,24,1,342,1
14730,24,1,403,1
14731,24,1,382,1
14732,24,2,393,1
14733,24,2,436,1
14734,24,2,357,0
14735,24,2,494,0
14736,24,2,505,1
14737,24,1,464,1
14738,24,1,360,1
14739,24,1,396,1
14740,24,1,343,0
14741,24,2,400,1
14742,24,1,394,1
14743,24,2,405,1
14744,24,2,392,1
14745,24,1,451,1
14746,24,1,404,1
14747,24,2,422,1
14748,24,2,328,0
14749,24,1,330,1
14750,24,1,368,1
14751,24,2,395,1
14848,24,1,437,1
14849,24,2,366,1
14850,24,1,386,1
14851,24,2,398,1
14852,24,2,384,1
14853,24,1,460,1
14854,24,1,412,1
14855,24,2,494,1
14856,24,1,620,1
14857,24,2,486,1
14858,24,1,566,1
14859,24,2,266,1
14860,24,1,434,0
14861,24,2,544,1
14862,24,2,364,0
14863,24,2,541,1
14864,24,2,450,1
14865,24,1,347,1
14866,24,1,375,1
14867,24,1,451,1
14868,24,2,356,1
14869,24,2,473,1
14870,24,1,569,1
14871,24,1,325,1
14872,24,2,435,1
14873,24,1,388,1
14874,24,1,343,1
14875,24,2,548,1
14876,24,2,417,1
14877,24,1,331,1
14878,24,2,480,1
14879,24,1,583,1
14976,24,2,333,1
14977,24,1,314,1
14978,24,1,288,1
14979,24,1,239,1
14980,24,1,377,1
14981,24,1,348,0
14982,24,1,349,1
14983,24,1,410,1
14984,24,2,420,1
14985,24,1,502,0
14986,24,2,281,1
14987,24,2,288,0
14988,24,2,348,0
14989,24,2,573,1
14990,24,2,425,1
14991,24,1,459,1
14992,24,2,572,1
14993,24,2,376,1
14994,24,2,412,0
14995,24,2,466,1
14996,24,2,402,1
14997,24,1,476,1
14998,24,1,412,1
14999,24,2,398,1
15000,24,1,376,0
15001,24,1,368,1
15002,24,1,436,1
15003,24,1,405,1
15004,24,2,416,1
15005,24,2,730,0
15006,24,2,372,1
15007,24,1,368,1
15104,24,2,425,1
15105,24,1,451,1
15106,24,2,484,1
15107,24,1,419,1
15108,24,1,509,1
15109,24,1,364,1
15110,24,1,304,1
15111,24,1,494,1
15112,24,2,405,1
15113,24,2,472,1
15114,24,2,464,1
15115,24,2,384,1
15116,24,2,435,0
15117,24,2,473,1
15118,24,2,385,0
15119,24,1,425,1
15120,24,1,403,0
15121,24,1,354,1
15122,24,2,358,0
15123,24,2,552,1
15124,24,2,484,1
15125,24,1,468,1
15126,24,2,308,0
15127,24,1,375,1
15128,24,1,371,1
15129,24,2,407,0
15130,24,1,382,1
15131,24,2,425,1
15132,24,1,411,1
15133,24,1,421,1
15134,24,1,415,1
15135,24,2,417,1
15456,25,2,407,1
15457,25,2,425,1
15458,25,1,355,1
15459,25,1,400,1
15460,25,1,307,1
15461,25,1,417,1
15462,25,2,371,1
15463,25,2,335,1
15464,25,2,333,0
15465,25,1,310,1
15466,25,1,300,1
15467,25,1,347,1
15468,25,1,368,1
15469,25,1,308,1
15470,25,1,362,1
15471,25,2,366,1
15472,25,2,402,1
15473,25,1,413,1
15474,25,1,351,1
15475,25,2,467,1
15476,25,2,372,1
15477,25,2,423,1
15478,25,2,337,0
15479,25,2,466,1
15480,25,2,450,1
15481,25,1,379,1
15482,25,2,438,1
15483,25,2,376,1
15484,25,2,395,1
15485,25,1,774,1
15486,25,1,338,1
15487,25,1,431,1
15584,25,1,443,1
15585,25,2,412,1
15586,25,1,374,1
15587,25,2,354,1
15588,25,2,407,1
15589,25,2,512,1
15590,25,2,446,1
15591,25,2,359,1
15592,25,2,459,1
15593,25,1,355,1
15594,25,2,552,1
15595,25,1,332,1
15596,25,1,346,1
15597,25,1,318,1
15598,25,1,356,1
15599,25,1,305,1
15600,25,2,519,1
15601,25,1,374,1
15602,25,2,329,0
15603,25,2,339,1
15604,25,1,337,1
15605,25,1,334,1
15606,25,1,307,1
15607,25,2,498,1
15608,25,2,385,1
15609,25,1,332,1
15610,25,2,409,1
15611,25,1,395,1
15612,25,1,406,1
15613,25,2,376,1
15614,25,2,396,1
15615,25,1,382,1
15712,25,1,339,1
15713,25,2,393,1
15714,25,2,355,1
15715,25,2,416,1
15716,25,2,410,1
15717,25,1,364,1
15718,25,1,344,1
15719,25,1,388,1
15720,25,2,408,1
15721,25,1,338,1
15722,25,1,376,1
15723,25,2,324,0
15724,25,2,374,1
15725,25,2,362,1
15726,25,2,358,1
15727,25,2,467,1
15728,25,2,387,1
15729,25,1,334,1
15730,25,1,347,1
15731,25,2,344,1
15732,25,1,397,1
15733,25,1,327,1
15734,25,2,381,1
15735,25,2,400,1
15736,25,1,523,1
15737,25,2,337,1
15738,25,1,358,1
15739,25,1,371,1
15740,25,1,399,1
15741,25,1,313,1
15742,25,1,367,1
15743,25,2,547,1
15840,25,1,431,1
15841,25,1,312,1
15842,25,1,350,1
15843,25,1,371,1
15844,25,1,351,1
15845,25,2,419,1
15846,25,2,357,1
15847,25,2,434,1
15848,25,1,363,1
15849,25,2,359,1
15850,25,2,364,1
15851,25,2,384,1
15852,25,2,371,1
15853,25,1,319,1
15854,25,1,373,1
15855,25,1,369,1
15856,25,2,349,0
15857,25,1,406,1
15858,25,1,353,1
15859,25,1,310,1
15860,25,1,300,1
15861,25,2,451,1
15862,25,2,467,1
15863,25,2,443,1
15864,25,2,388,1
15865,25,1,423,1
15866,25,2,345,1
15867,25,2,358,1
15868,25,1,363,1
15869,25,2,423,1
15870,25,1,385,1
15871,25,2,356,1
15968,25,2,528,1
15969,25,2,454,1
15970,25,1,398,1
15971,25,1,377,1
15972,25,2,412,1
15973,25,2,406,1
15974,25,2,409,1
15975,25,2,412,1
15976,25,2,414,1
15977,25,1,408,1
15978,25,1,386,1
15979,25,1,446,1
15980,25,1,366,1
15981,25,1,346,1
15982,25,2,399,1
15983,25,1,346,1
15984,25,1,374,1
15985,25,2,306,1
15986,25,2,361,1
15987,25,1,317,1
15988,25,1,403,1
15989,25,2,420,1
15990,25,1,438,1
15991,25,2,368,0
15992,25,1,352,1
15993,25,2,357,1
15994,25,1,378,1
15995,25,2,413,1
15996,25,2,591,1
15997,25,1,538,1
15998,25,2,416,1
15999,25,1,418,1
16096,25,2,574,1
16097,25,2,514,1
16098,25,2,712,1
16099,25,1,358,1
16100,25,1,515,1
16101,25,1,513,1
16102,25,2,423,1
16103,25,2,392,1
16104,25,2,435,1
16105,25,2,373,1
16106,25,2,377,1
16107,25,1,428,1
16108,25,2,477,1
16109,25,2,469,1
16110,25,1,469,1
16111,25,2,565,1
16112,25,2,537,1
16113,25,1,422,1
16114,25,1,464,1
16115,25,1,464,1
16116,25,2,488,1
16117,25,1,439,1
16118,25,2,497,1
16119,25,1,431,1
16120,25,2,465,1
16121,25,1,425,1
16122,25,1,419,1
16123,25,1,389,1
16124,25,1,416,1
16125,25,1,418,1
16126,25,2,588,1
16127,25,1,447,1
16288,26,2,480,1
16289,26,2,495,1
16290,26,2,390,1
16291,26,1,393,1
16292,26,1,628,1
16293,26,1,485,1
16294,26,2,548,1
16295,26,1,577,1
16296,26,1,540,1
16297,26,1,458,1
16298,26,1,418,1
16299,26,2,556,1
16300,26,2,441,1
16301,26,1,419,1
16302,26,2,429,1
16303,26,1,590,1
16304,26,2,425,1
16305,26,2,475,1
16306,26,2,499,1
16307,26,2,378,1
16308,26,2,621,1
16309,26,1,439,1
16310,26,1,449,1
16311,26,1,433,1
16312,26,2,379,1
16313,26,2,430,1
16314,26,1,375,1
16315,26,2,443,1
16316,26,2,492,1
16317,26,1,419,1
16318,26,1,413,1
16319,26,1,399,1
16416,26,2,509,1
16417,26,1,444,1
16418,26,2,404,1
16419,26,2,391,1
16420,26,1,362,1
16421,26,2,430,1
16422,26,1,472,1
16423,26,1,600,1
16424,26,1,442,1
16425,26,1,444,1
16426,26,2,532,1
16427,26,2,658,1
16428,26,2,450,1
16429,26,1,467,1
16430,26,2,459,1
16431,26,2,364,1
16432,26,1,568,1
16433,26,2,340,0
16434,26,2,382,1
16435,26,1,425,1
16436,26,2,363,1
16437,26,1,439,1
16438,26,1,376,1
16439,26,1,420,1
16440,26,1,438,1
16441,26,2,735,1
16442,26,2,588,1
16443,26,1,752,0
16444,26,2,441,1
16445,26,1,634,1
16446,26,2,516,1
16447,26,1,522,1
16544,26,2,363,1
16545,26,2,399,1
16546,26,1,346,1
16547,26,2,479,1
16548,26,1,606,1
16549,26,2,377,1
16550,26,2,340,0
16551,26,2,438,1
16552,26,2,695,1
16553,26,1,398,1
16554,26,1,369,1
16555,26,2,581,1
16556,26,1,400,1
16557,26,1,387,1
16558,26,2,358,1
16559,26,1,419,1
16560,26,1,445,1
16561,26,1,421,1
16562,26,1,543,1
16563,26,2,556,1
16564,26,1,361,1
16565,26,1,381,1
16566,26,1,360,1
16567,26,1,444,1
16568,26,2,413,1
16569,26,2,511,1
16570,26,1,429,1
16571,26,2,477,1
16572,26,1,509,1
16573,26,2,411,1
16574,26,2,437,1
16575,26,2,479,1
16672,26,1,453,1
16673,26,2,477,1
16674,26,1,413,1
16675,26,1,639,1
16676,26,1,504,0
16677,26,1,451,1
16678,26,2,412,1
16679,26,2,462,1
16680,26,1,438,1
16681,26,1,415,1
16682,26,2,425,1
16683,26,1,363,1
16684,26,1,431,1
16685,26,2,393,1
16686,26,2,452,1
16687,26,2,365,1
16688,26,2,457,1
16689,26,2,417,1
16690,26,2,491,1
16691,26,2,443,1
16692,26,1,460,0
16693,26,1,833,1
16694,26,1,625,1
16695,26,2,3323,1
16696,26,1,610,1
16697,26,1,372,1
16698,26,2,408,1
16699,26,2,387,1
16700,26,1,414,1
16701,26,1,376,1
16702,26,2,571,1
16703,26,2,399,1
16800,26,2,545,1
16801,26,1,430,1
16802,26,2,319,1
16803,26,1,341,1
16804,26,1,434,1
16805,26,2,380,1
16806,26,2,479,1
16807,26,1,430,0
16808,26,1,452,1
16809,26,1,389,1
16810,26,1,384,1
16811,26,1,427,1
16812,26,1,509,1
16813,26,2,427,1
16814,26,2,365,1
16815,26,2,457,1
16816,26,2,337,0
16817,26,2,474,1
16818,26,1,386,1
16819,26,2,414,1
16820,26,2,432,1
16821,26,2,481,1
16822,26,2,416,1
16823,26,2,570,1
16824,26,1,414,1
16825,26,2,376,1
16826,26,1,436,1
16827,26,1,365,1
16828,26,2,481,1
16829,26,1,440,1
16830,26,1,442,0
16831,26,1,480,1
16928,26,2,701,1
16929,26,2,420,1
16930,26,1,422,1
16931,26,2,416,1
16932,26,1,394,1
16933,26,2,420,1
16934,26,2,558,1
16935,26,2,443,1
16936,26,1,364,1
16937,26,1,408,1
16938,26,2,619,1
16939,26,1,349,1
16940,26,1,370,1
16941,26,1,397,1
16942,26,1,359,1
16943,26,1,467,1
16944,26,2,587,1
16945,26,1,335,1
16946,26,2,380,1
16947,26,1,415,1
16948,26,1,425,1
16949,26,1,507,1
16950,26,1,402,1
16951,26,2,509,1
16952,26,2,435,1
16953,26,1,421,1
16954,26,2,455,1
16955,26,1,471,1
16956,26,2,367,1
16957,26,2,347,1
16958,26,2,344,1
16959,26,2,429,1
17216,27,2,659,1
17217,27,2,372,1
17218,27,2,392,1
17219,27,1,355,1
17220,27,1,408,1
17221,27,2,442,1
17222,27,2,348,1
17223,27,2,448,1
17224,27,1,409,1
17225,27,1,500,1
17226,27,1,474,1
17227,27,1,418,1
17228,27,1,460,1
17229,27,1,436,1
17230,27,1,398,1
17231,27,2,432,1
17232,27,2,466,1
17233,27,2,418,1
17234,27,1,420,1
17235,27,1,454,1
17236,27,1,478,1
17237,27,1,478,1
17238,27,2,533,0
17239,27,2,503,1
17240,27,2,454,1
17241,27,1,502,1
17242,27,1,669,1
17243,27,2,565,1
17244,27,1,393,1
17245,27,2,492,1
17246,27,2,434,1
17247,27,2,468,1
17344,27,1,488,1
17345,27,1,303,1
17346,27,1,398,1
17347,27,1,400,1
17348,27,2,435,1
17349,27,2,332,0
17350,27,2,438,1
17351,27,2,456,1
17352,27,1,432,1
17353,27,1,378,1
17354,27,2,461,0
17355,27,1,385,1
17356,27,1,365,1
17357,27,2,409,1
17358,27,2,403,1
17359,27,2,486,1
17360,27,2,541,1
17361,27,1,371,1
17362,27,2,567,1
17363,27,2,499,1
17364,27,1,402,1
17365,27,1,380,1
17366,27,2,384,1
17367,27,2,434,1
17368,27,1,459,1
17369,27,2,507,1
17370,27,2,426,1
17371,27,1,387,1
17372,27,2,407,0
17373,27,1,422,1
17374,27,1,376,1
17375,27,1,395,1
17472,27,2,685,1
17473,27,2,524,1
17474,27,1,378,1
17475,27,2,414,1
17476,27,2,416,1
17477,27,1,394,1
17478,27,2,476,1
17479,27,1,412,0
17480,27,2,435,1
17481,27,2,564,1
17482,27,1,488,1
17483,27,1,456,1
17484,27,1,351,1
17485,27,2,476,1
17486,27,2,379,1
17487,27,2,439,1
17488,27,1,408,1
17489,27,1,451,1
17490,27,2,387,1
17491,27,1,367,1
17492,27,1,379,1
17493,27,1,422,1
17494,27,1,376,1
17495,27,1,419,1
17496,27,2,469,1
17497,27,1,461,1
17498,27,2,461,1
17499,27,1,389,1
17500,27,2,489,1
17501,27,2,464,1
17502,27,1,384,1
17503,27,2,555,1
17600,27,1,510,1
17601,27,2,564,1
17602,27,1,448,1
17603,27,1,489,1
17604,27,2,400,1
17605,27,1,427,1
17606,27,1,300,1
17607,27,1,347,1
17608,27,2,320,1
17609,27,1,334,1
17610,27,2,419,1
17611,27,2,429,1
17612,27,2,350,1
17613,27,1,355,1
17614,27,2,384,1
17615,27,1,451,1
17616,27,2,348,1
17617,27,2,480,1
17618,27,1,424,1
17619,27,2,354,1
17620,27,2,390,1
17621,27,1,362,1
17622,27,1,334,1
17623,27,1,363,1
17624,27,2,375,0
17625,27,1,479,1
17626,27,2,431,0
17627,27,2,564,1
17628,27,2,401,1
17629,27,2,539,1
17630,27,1,425,1
17631,27,1,507,1
17728,27,1,540,1
17729,27,1,377,1
17730,27,2,508,1
17731,27,2,443,1
17732,27,2,412,1
17733,27,1,398,1
17734,27,2,448,1
17735,27,2,489,1
17736,27,2,472,1
17737,27,2,488,1
17738,27,2,448,1
17739,27,1,416,1
17740,27,1,450,1
17741,27,2,419,1
17742,27,2,445,1
17743,27,2,414,1
17744,27,2,472,1
17745,27,1,416,1
17746,27,1,362,1
17747,27,1,366,1
17748,27,2,442,1
17749,27,1,411,1
17750,27,1,373,1
17751,27,1,353,1
17752,27,2,526,1
17753,27,2,428,1
17754,27,1,397,1
17755,27,2,480,1
17756,27,1,455,1
17757,27,1,360,1
17758,27,1,372,1
17759,27,1,328,1
17856,27,2,699,1
17857,27,1,378,1
17858,27,2,469,1
17859,27,1,381,1
17860,27,2,432,1
17861,27,2,594,1
17862,27,1,420,1
17863,27,2,406,0
17864,27,2,606,1
17865,27,1,384,1
17866,27,2,396,1
17867,27,2,454,1
17868,27,2,559,1
17869,27,1,420,1
17870,27,1,478,1
17871,27,1,629,1
17872,27,1,566,1
17873,27,1,427,1
17874,27,1,444,1
17875,27,2,381,1
17876,27,1,544,1
17877,27,1,317,1
17878,27,2,475,1
17879,27,1,483,1
17880,27,2,386,1
17881,27,1,365,1
17882,27,2,673,1
17883,27,2,585,1
17884,27,2,597,1
17885,27,2,502,1
17886,27,1,438,1
17887,27,1,374,1
18048,28,1,516,1
18049,28,2,490,1
18050,28,1,425,1
18051,28,2,443,1
18052,28,2,468,1
18053,28,2,460,1
18054,28,2,460,1
18055,28,2,444,1
18056,28,2,420,0
18057,28,1,451,1
18058,28,1,404,1
18059,28,2,478,1
18060,28,1,486,1
18061,28,2,469,1
18062,28,1,365,1
18063,28,1,385,1
18064,28,2,476,1
18065,28,2,428,1
18066,28,2,462,1
18067,28,1,414,1
18068,28,2,480,1
18069,28,1,399,1
18070,28,2,489,1
18071,28,1,480,1
18072,28,1,695,1
18073,28,1,350,1
18074,28,2,483,1
18075,28,2,514,1
18076,28,1,384,1
18077,28,1,435,1
18078,28,1,485,1
18079,28,1,412,1
18176,28,2,454,1
18177,28,2,455,1
18178,28,1,479,1
18179,28,2,431,1
18180,28,1,392,1
18181,28,1,451,1
18182,28,2,500,1
18183,28,2,483,1
18184,28,1,458,1
18185,28,1,403,1
18186,28,2,509,1
18187,28,2,396,1
18188,28,1,446,1
18189,28,2,575,1
18190,28,2,459,1
18191,28,2,483,1
18192,28,1,411,1
18193,28,2,469,1
18194,28,1,429,1
18195,28,1,374,1
18196,28,2,394,1
18197,28,2,413,1
18198,28,1,423,1
18199,28,1,361,1
18200,28,1,349,1
18201,28,1,441,1
18202,28,1,387,1
18203,28,2,414,1
18204,28,2,496,1
18205,28,1,351,1
18206,28,1,371,1
18207,28,2,527,1
18304,28,1,406,1
18305,28,1,361,1
18306,28,2,445,0
18307,28,1,370,1
18308,28,1,350,1
18309,28,2,426,1
18310,28,1,363,1
18311,28,1,447,1
18312,28,1,472,1
18313,28,2,416,1
18314,28,1,498,1
18315,28,2,473,1
18316,28,1,425,1
18317,28,2,475,0
18318,28,2,535,1
18319,28,1,381,1
18320,28,1,488,1
18321,28,2,495,1
18322,28,1,446,1
18323,28,1,439,1
18324,28,2,472,1
18325,28,2,488,1
18326,28,1,440,1
18327,28,2,489,1
18328,28,2,544,1
18329,28,1,453,1
18330,28,2,510,1
18331,28,2,484,1
18332,28,1,435,1
18333,28,2,412,1
18334,28,2,526,1
18335,28,2,484,1
18432,28,1,542,1
18433,28,1,363,1
18434,28,2,407,0
18435,28,1,374,1
18436,28,2,466,1
18437,28,1,370,1
18438,28,1,390,1
18439,28,2,473,1
18440,28,1,369,1
18441,28,2,533,1
18442,28,1,467,1
18443,28,1,355,1
18444,28,1,383,1
18445,28,2,499,1
18446,28,2,489,1
18447,28,2,401,1
18448,28,2,467,1
18449,28,1,379,1
18450,28,1,415,1
18451,28,2,489,1
18452,28,1,408,1
18453,28,2,483,1
18454,28,1,426,1
18455,28,1,371,1
18456,28,2,511,1
18457,28,1,421,1
18458,28,1,463,1
18459,28,2,487,1
18460,28,2,375,1
18461,28,2,435,1
18462,28,2,468,1
18463,28,2,516,1
18560,28,1,437,1
18561,28,2,471,1
18562,28,2,391,1
18563,28,1,474,1
18564,28,1,450,1
18565,28,2,459,1
18566,28,2,475,1
18567,28,2,451,1
18568,28,1,396,1
18569,28,1,439,1
18570,28,2,448,1
18571,28,1,369,1
18572,28,1,397,1
18573,28,1,407,1
18574,28,1,426,1
18575,28,2,451,1
18576,28,2,484,1
18577,28,2,500,1
18578,28,1,418,1
18579,28,1,460,1
18580,28,2,388,1
18581,28,2,456,1
18582,28,2,504,1
18583,28,1,399,1
18584,28,2,482,1
18585,28,1,417,1
18586,28,1,363,1
18587,28,2,439,1
18588,28,2,496,1
18589,28,2,479,1
18590,28,1,614,1
18591,28,1,432,1
18688,28,1,508,1
18689,28,2,458,1
18690,28,2,579,1
18691,28,1,383,1
18692,28,1,402,1
18693,28,1,365,1
18694,28,2,401,1
18695,28,2,363,1
18696,28,2,463,1
18697,28,2,391,1
18698,28,1,395,1
18699,28,1,469,1
18700,28,1,373,1
18701,28,1,361,1
18702,28,1,469,1
18703,28,1,445,1
18704,28,1,470,1
18705,28,2,630,1
18706,28,2,503,1
18707,28,2,422,1
18708,28,1,408,1
18709,28,1,387,1
18710,28,2,414,0
18711,28,2,476,1
18712,28,1,428,1
18713,28,2,413,1
18714,28,2,503,1
18715,28,1,374,1
18716,28,2,482,1
18717,28,2,489,1
18718,28,1,433,1
18719,28,2,402,1
19040,29,2,939,1
19041,29,2,489,1
19042,29,1,392,1
19043,29,2,499,1
19044,29,1,426,1
19045,29,2,532,1
19046,29,1,537,1
19047,29,1,399,1
19048,29,1,425,1
19049,29,1,595,1
19050,29,1,406,1
19051,29,2,465,1
19052,29,2,377,1
19053,29,2,404,1
19054,29,2,503,1
19055,29,2,493,1
19056,29,1,388,1
19057,29,1,447,1
19058,29,1,432,1
19059,29,1,497,1
19060,29,2,383,1
19061,29,1,426,1
19062,29,2,436,1
19063,29,1,357,1
19064,29,1,410,1
19065,29,1,412,1
19066,29,1,358,1
19067,29,2,482,1
19068,29,2,570,1
19069,29,2,502,1
19070,29,2,484,1
19071,29,2,516,1
19168,29,2,595,1
19169,29,1,398,1
19170,29,2,512,1
19171,29,1,374,1
19172,29,2,442,1
19173,29,1,355,1
19174,29,1,432,1
19175,29,1,401,1
19176,29,1,372,1
19177,29,1,424,1
19178,29,2,362,1
19179,29,1,382,1
19180,29,2,377,1
19181,29,1,356,1
19182,29,2,449,1
19183,29,1,610,1
19184,29,2,428,0
19185,29,1,681,1
19186,29,1,433,1
19187,29,2,498,1
19188,29,2,425,1
19189,29,1,579,1
19190,29,2,518,1
19191,29,1,348,1
19192,29,2,433,1
19193,29,2,538,1
19194,29,2,576,1
19195,29,2,452,1
19196,29,2,404,1
19197,29,1,399,1
19198,29,2,450,1
19199,29,1,410,1
19296,29,2,531,1
19297,29,2,417,1
19298,29,1,379,1
19299,29,2,566,1
19300,29,1,402,1
19301,29,2,365,0
19302,29,1,509,1
19303,29,1,444,1
19304,29,1,388,1
19305,29,1,392,1
19306,29,2,467,1
19307,29,1,387,1
19308,29,2,470,1
19309,29,1,406,1
19310,29,1,385,1
19311,29,2,388,1
19312,29,2,360,1
19313,29,2,412,1
19314,29,2,430,1
19315,29,2,495,1
19316,29,1,486,1
19317,29,2,541,1
19318,29,2,378,1
19319,29,1,358,1
19320,29,1,394,1
19321,29,2,477,1
19322,29,2,508,1
19323,29,2,371,1
19324,29,1,415,1
19325,29,1,473,1
19326,29,1,409,1
19327,29,1,700,1
19424,29,2,426,0
19425,29,2,585,1
19426,29,1,388,1
19427,29,2,464,1
19428,29,2,496,1
19429,29,1,390,1
19430,29,1,370,1
19431,29,2,366,1
19432,29,1,617,1
19433,29,2,659,1
19434,29,2,483,1
19435,29,1,491,1
19436,29,1,394,1
19437,29,1,373,1
19438,29,2,369,0
19439,29,1,441,0
19440,29,1,439,1
19441,29,2,560,1
19442,29,2,492,1
19443,29,2,531,1
19444,29,2,496,1
19445,29,1,407,1
19446,29,2,450,1
19447,29,1,514,1
19448,29,1,393,1
19449,29,2,523,1
19450,29,2,409,1
19451,29,1,363,1
19452,29,1,423,1
19453,29,1,433,1
19454,29,1,379,1
19455,29,2,518,1
19552,29,2,703,1
19553,29,2,502,1
19554,29,1,484,1
19555,29,1,564,1
19556,29,1,424,1
19557,29,1,426,1
19558,29,1,556,1
19559,29,2,448,1
19560,29,1,361,1
19561,29,1,445,1
19562,29,1,646,1
19563,29,2,486,1
19564,29,2,470,1
19565,29,2,550,1
19566,29,1,362,1
19567,29,2,510,1
19568,29,2,652,1
19569,29,1,397,1
19570,29,1,376,1
19571,29,2,316,0
19572,29,1,526,1
19573,29,2,396,1
19574,29,2,462,1
19575,29,2,462,1
19576,29,2,422,1
19577,29,1,408,1
19578,29,2,451,1
19579,29,2,428,1
19580,29,2,389,0
19581,29,1,397,1
19582,29,1,496,1
19583,29,1,430,1
19680,29,1,830,1
19681,29,2,415,0
19682,29,1,462,1
19683,29,2,446,1
19684,29,1,703,1
19685,29,1,437,1
19686,29,2,463,1
19687,29,1,351,1
19688,29,1,378,0
19689,29,1,442,1
19690,29,2,451,1
19691,29,1,380,1
19692,29,1,399,1
19693,29,1,322,1
19694,29,2,400,0
19695,29,2,511,1
19696,29,2,485,1
19697,29,2,341,1
19698,29,2,386,1
19699,29,2,557,1
19700,29,1,386,1
19701,29,2,645,1
19702,29,1,430,1
19703,29,1,447,1
19704,29,1,384,1
19705,29,1,427,1
19706,29,2,373,0
19707,29,2,429,1
19708,29,2,638,1
19709,29,2,424,1
19710,29,2,402,1
19711,29,1,357,1
19904,3,2,677,1
19905,3,1,397,1
19906,3,2,407,1
19907,3,2,330,1
19908,3,2,535,1
19909,3,2,445,1
19910,3,2,349,1
19911,3,1,402,1
19912,3,1,453,1
19913,3,2,405,1
19914,3,1,456,1
19915,3,2,441,1
19916,3,2,434,1
19917,3,1,419,1
19918,3,1,421,1
19919,3,1,623,1
19920,3,1,346,1
19921,3,1,374,1
19922,3,2,394,1
19923,3,2,397,1
19924,3,2,439,0
19925,3,2,389,1
19926,3,1,393,1
19927,3,1,372,1
19928,3,2,400,1
19929,3,2,395,1
19930,3,1,413,1
19931,3,1,335,1
19932,3,1,341,0
19933,3,1,510,1
19934,3,2,396,0
19935,3,1,420,1
20032,3,1,488,1
20033,3,1,856,1
20034,3,1,393,1
20035,3,1,460,1
20036,3,2,604,1
20037,3,2,727,1
20038,3,2,468,1
20039,3,1,364,1
20040,3,2,336,1
20041,3,2,381,1
20042,3,1,369,1
20043,3,1,373,1
20044,3,1,449,1
20045,3,2,473,1
20046,3,2,401,1
20047,3,2,380,0
20048,3,2,484,1
20049,3,1,347,1
20050,3,1,416,1
20051,3,1,362,1
20052,3,1,446,1
20053,3,1,343,0
20054,3,2,456,1
20055,3,2,353,1
20056,3,2,525,1
20057,3,2,436,1
20058,3,1,356,1
20059,3,2,385,1
20060,3,1,356,1
20061,3,2,1001,1
20062,3,2,380,0
20063,3,1,355,1
20160,3,2,528,1
20161,3,2,358,0
20162,3,1,407,1
20163,3,1,562,1
20164,3,2,414,1
20165,3,1,400,1
20166,3,1,386,1
20167,3,2,574,1
20168,3,2,442,1
20169,3,1,387,1
20170,3,2,382,0
20171,3,1,414,1
20172,3,2,416,1
20173,3,1,434,1
20174,3,1,435,1
20175,3,1,396,1
20176,3,2,503,1
20177,3,2,373,1
20178,3,2,425,1
20179,3,1,395,1
20180,3,2,438,1
20181,3,2,431,1
20182,3,1,409,1
20183,3,1,387,1
20184,3,1,367,1
20185,3,2,491,1
20186,3,2,338,0
20187,3,1,380,1
20188,3,1,375,0
20189,3,2,400,1
20190,3,2,458,1
20191,3,1,355,1
20288,3,2,469,1
20289,3,1,437,1
20290,3,2,422,1
20291,3,2,440,1
20292,3,1,378,1
20293,3,1,533,1
20294,3,2,530,1
20295,3,1,520,1
20296,3,1,598,1
20297,3,2,344,1
20298,3,2,333,0
20299,3,1,375,1
20300,3,2,451,1
20301,3,2,588,1
20302,3,2,367,1
20303,3,1,475,1
20304,3,2,459,1
20305,3,1,436,1
20306,3,1,381,1
20307,3,1,408,1
20308,3,2,539,1
20309,3,1,456,1
20310,3,2,345,0
20311,3,1,418,1
20312,3,2,556,1
20313,3,2,505,1
20314,3,2,352,1
20315,3,1,356,1
20316,3,2,433,1
20317,3,1,362,1
20318,3,1,406,1
20319,3,1,521,1
20416,3,2,553,1
20417,3,1,558,1
20418,3,2,810,1
20419,3,2,405,1
20420,3,1,471,1
20421,3,2,407,1
20422,3,1,426,0
20423,3,1,408,1
20424,3,2,459,1
20425,3,1,436,1
20426,3,2,437,1
20427,3,1,350,1
20428,3,2,579,1
20429,3,2,406,1
20430,3,1,585,1
20431,3,2,421,1
20432,3,1,479,1
20433,3,1,406,1
20434,3,1,473,1
20435,3,1,481,1
20436,3,1,352,1
20437,3,1,413,1
20438,3,1,407,1
20439,3,2,457,1
20440,3,2,394,1
20441,3,2,421,1
20442,3,2,439,1
20443,3,2,439,1
20444,3,1,408,1
20445,3,1,347,1
20446,3,2,312,0
20447,3,2,530,1
20544,3,1,474,1
20545,3,2,306,0
20546,3,1,437,1
20547,3,2,502,1
20548,3,2,485,1
20549,3,1,372,1
20550,3,2,392,1
20551,3,2,348,1
20552,3,1,400,1
20553,3,2,491,1
20554,3,1,378,1
20555,3,1,446,0
20556,3,2,379,1
20557,3,2,422,1
20558,3,1,432,1
20559,3,2,416,1
20560,3,1,426,1
20561,3,1,348,1
20562,3,1,568,1
20563,3,2,380,1
20564,3,1,624,1
20565,3,2,402,1
20566,3,2,365,1
20567,3,1,417,1
20568,3,1,347,1
20569,3,1,351,1
20570,3,1,380,0
20571,3,2,564,1
20572,3,1,424,1
20573,3,2,538,1
20574,3,2,495,1
20575,3,2,510,1
20768,30,1,544,1
20769,30,2,412,1
20770,30,1,406,1
20771,30,2,433,1
20772,30,1,402,1
20773,30,1,333,1
20774,30,1,330,1
20775,30,2,479,1
20776,30,1,351,1
20777,30,1,371,1
20778,30,2,567,1
20779,30,2,450,1
20780,30,2,483,1
20781,30,1,339,1
20782,30,2,400,1
20783,30,2,354,1
20784,30,1,575,1
20785,30,2,451,1
20786,30,1,628,1
20787,30,1,485,1
20788,30,1,533,1
20789,30,2,610,1
20790,30,2,684,1
20791,30,1,515,1
20792,30,1,481,1
20793,30,2,385,1
20794,30,2,332,1
20795,30,2,329,1
20796,30,2,351,1
20797,30,2,323,1
20798,30,1,449,1
20799,30,1,434,1
20896,30,1,482,1
20897,30,1,425,1
20898,30,2,411,0
20899,30,1,473,1
20900,30,1,433,1
20901,30,2,659,1
20902,30,1,451,1
20903,30,2,460,1
20904,30,1,396,1
20905,30,1,359,1
20906,30,2,491,0
20907,30,1,391,1
20908,30,2,595,1
20909,30,2,445,1
20910,30,1,438,1
20911,30,2,471,1
20912,30,1,511,1
20913,30,1,469,1
20914,30,1,605,1
20915,30,2,496,1
20916,30,1,407,1
20917,30,1,577,1
20918,30,2,469,1
20919,30,2,397,1
20920,30,1,376,1
20921,30,1,492,1
20922,30,2,611,1
20923,30,2,461,1
20924,30,2,493,1
20925,30,2,476,1
20926,30,2,580,1
20927,30,2,431,1
21024,30,1,530,1
21025,30,1,519,1
21026,30,1,373,1
21027,30,2,529,1
21028,30,1,366,1
21029,30,1,378,1
21030,30,2,398,1
21031,30,1,336,1
21032,30,2,446,1
21033,30,2,486,1
21034,30,2,390,1
21035,30,1,361,1
21036,30,2,749,1
21037,30,1,386,1
21038,30,2,469,1
21039,30,1,341,1
21040,30,2,490,1
21041,30,1,330,1
21042,30,1,319,1
21043,30,2,325,1
21044,30,2,451,1
21045,30,1,652,1
21046,30,2,404,1
21047,30,1,471,1
21048,30,1,327,1
21049,30,2,332,1
21050,30,2,490,1
21051,30,1,353,1
21052,30,2,398,1
21053,30,2,432,1
21054,30,2,474,1
21055,30,1,402,1
21152,30,2,527,1
21153,30,1,324,1
21154,30,2,474,1
21155,30,1,330,1
21156,30,1,327,1
21157,30,1,325,1
21158,30,2,315,1
21159,30,1,313,1
21160,30,2,455,1
21161,30,1,335,1
21162,30,2,437,1
21163,30,1,350,1
21164,30,2,395,1
21165,30,2,325,1
21166,30,1,459,1
21167,30,2,356,0
21168,30,1,413,1
21169,30,1,375,1
21170,30,2,499,1
21171,30,1,394,1
21172,30,2,428,1
21173,30,1,366,1
21174,30,2,338,1
21175,30,1,351,1
21176,30,2,372,1
21177,30,2,360,1
21178,30,1,356,1
21179,30,2,409,1
21180,30,2,387,1
21181,30,1,447,1
21182,30,1,406,1
21183,30,2,425,1
21280,30,1,458,1
21281,30,1,314,1
21282,30,2,344,1
21283,30,1,325,1
21284,30,1,411,1
21285,30,1,317,1
21286,30,1,371,1
21287,30,1,335,0
21288,30,2,393,1
21289,30,2,380,0
21290,30,2,620,1
21291,30,2,597,1
21292,30,1,472,1
21293,30,2,424,1
21294,30,2,506,1
21295,30,1,424,1
21296,30,2,626,1
21297,30,1,340,1
21298,30,2,361,1
21299,30,1,349,1
21300,30,1,426,1
21301,30,2,627,1
21302,30,2,548,1
21303,30,1,425,1
21304,30,1,427,1
21305,30,2,468,0
21306,30,1,417,1
21307,30,1,475,1
21308,30,2,443,1
21309,30,2,540,1
21310,30,2,481,1
21311,30,2,432,1
21408,30,2,398,1
21409,30,2,368,1
21410,30,1,324,1
21411,30,2,354,1
21412,30,2,423,1
21413,30,2,553,1
21414,30,1,406,1
21415,30,2,392,1
21416,30,1,380,1
21417,30,1,415,1
21418,30,1,313,1
21419,30,1,367,1
21420,30,2,315,0
21421,30,2,533,1
21422,30,2,411,1
21423,30,2,397,1
21424,30,1,407,1
21425,30,2,570,1
21426,30,1,390,1
21427,30,1,465,1
21428,30,1,369,1
21429,30,2,413,1
21430,30,2,407,1
21431,30,1,338,1
21432,30,1,367,1
21433,30,2,395,1
21434,30,1,358,1
21435,30,2,362,1
21436,30,1,334,1
21437,30,1,460,1
21438,30,1,308,1
21439,30,2,322,1
21696,31,1,595,1
21697,31,2,390,1
21698,31,1,354,1
21699,31,1,478,1
21700,31,1,462,1
21701,31,2,582,1
21702,31,2,488,1
21703,31,2,440,1
21704,31,2,433,1
21705,31,2,442,1
21706,31,2,428,1
21707,31,2,477,1
21708,31,2,436,1
21709,31,2,478,1
21710,31,1,437,1
21711,31,1,494,1
21712,31,2,381,1
21713,31,2,456,1
21714,31,1,385,1
21715,31,2,364,1
21716,31,1,424,1
21717,31,2,378,1
21718,31,1,430,1
21719,31,1,375,1
21720,31,2,419,1
21721,31,1,317,1
21722,31,1,339,1
21723,31,1,432,1
21724,31,1,418,1
21725,31,2,516,1
21726,31,1,458,1
21727,31,1,530,1
21824,31,2,496,1
21825,31,1,382,1
21826,31,1,410,1
21827,31,2,420,0
21828,31,2,458,1
21829,31,1,395,1
21830,31,1,390,1
21831,31,1,393,1
21832,31,1,332,1
21833,31,2,417,1
21834,31,2,355,1
21835,31,2,416,1
21836,31,1,450,1
21837,31,1,386,1
21838,31,2,446,1
21839,31,2,406,1
21840,31,2,449,1
21841,31,2,442,1
21842,31,2,435,1
21843,31,1,452,1
21844,31,2,453,1
21845,31,1,422,1
21846,31,1,408,1
21847,31,2,490,1
21848,31,1,418,1
21849,31,2,436,1
21850,31,1,437,1
21851,31,1,350,1
21852,31,2,395,1
21853,31,1,398,1
21854,31,1,480,1
21855,31,2,352,1
21952,31,1,520,1
21953,31,2,446,1
21954,31,2,479,1
21955,31,2,430,0
21956,31,1,388,1
21957,31,1,487,1
21958,31,1,455,1
21959,31,1,575,1
21960,31,2,507,1
21961,31,2,474,1
21962,31,2,562,1
21963,31,2,501,1
21964,31,1,468,1
21965,31,1,476,1
21966,31,1,459,1
21967,31,1,451,1
21968,31,2,388,1
21969,31,1,415,1
21970,31,1,425,1
21971,31,2,451,1
21972,31,2,476,1
21973,31,2,419,1
21974,31,2,421,1
21975,31,2,495,1
21976,31,2,422,1
21977,31,1,480,1
21978,31,1,391,1
21979,31,1,410,1
21980,31,2,388,1
21981,31,2,352,1
21982,31,1,412,1
21983,31,1,366,1
22080,31,2,632,1
22081,31,2,418,1
22082,31,1,452,1
22083,31,1,405,1
22084,31,2,415,1
22085,31,2,425,1
22086,31,2,499,1
22087,31,1,402,1
22088,31,1,725,0
22089,31,2,375,1
22090,31,1,571,1
22091,31,2,503,1
22092,31,2,510,1
22093,31,1,380,1
22094,31,1,471,1
22095,31,2,431,1
22096,31,1,353,1
22097,31,1,381,1
22098,31,2,432,1
22099,31,1,338,1
22100,31,2,335,1
22101,31,2,444,1
22102,31,1,333,0
22103,31,2,367,1
22104,31,1,339,1
22105,31,1,448,1
22106,31,1,289,0
22107,31,1,421,1
22108,31,2,407,1
22109,31,2,433,1
22110,31,2,403,1
22111,31,1,309,1
22208,31,2,429,1
22209,31,1,430,1
22210,31,2,432,1
22211,31,1,369,1
22212,31,1,373,1
22213,31,2,409,1
22214,31,2,332,0
22215,31,1,445,1
22216,31,2,438,1
22217,31,2,471,1
22218,31,2,439,1
22219,31,1,369,1
22220,31,2,421,1
22221,31,1,375,1
22222,31,1,499,1
22223,31,2,425,1
22224,31,1,371,1
22225,31,1,407,1
22226,31,2,362,0
22227,31,2,403,0
22228,31,1,386,1
22229,31,1,381,1
22230,31,2,432,1
22231,31,1,330,1
22232,31,2,431,1
22233,31,2,376,1
22234,31,1,396,1
22235,31,1,446,1
22236,31,2,415,1
22237,31,1,377,1
22238,31,1,396,1
22239,31,2,383,1
22336,31,1,479,1
22337,31,2,454,1
22338,31,2,439,1
22339,31,1,408,1
22340,31,1,323,1
22341,31,2,353,1
22342,31,2,390,1
22343,31,1,353,1
22344,31,1,310,1
22345,31,2,340,0
22346,31,2,414,1
22347,31,2,464,1
22348,31,1,368,1
22349,31,1,403,1
22350,31,1,406,1
22351,31,2,416,1
22352,31,2,442,1
22353,31,2,515,1
22354,31,1,369,1
22355,31,2,461,1
22356,31,2,413,1
22357,31,1,375,1
22358,31,1,459,1
22359,31,1,492,1
22360,31,1,443,1
22361,31,1,404,1
22362,31,2,414,1
22363,31,2,552,1
22364,31,2,445,1
22365,31,2,406,1
22366,31,1,384,1
22367,31,1,428,1
22528,32,1,469,1
22529,32,1,381,1
22530,32,2,688,1
22531,32,1,367,1
22532,32,2,491,1
22533,32,1,379,1
22534,32,2,574,1
22535,32,2,506,1
22536,32,2,473,1
22537,32,2,497,1
22538,32,1,439,1
22539,32,2,456,1
22540,32,1,440,1
22541,32,1,634,1
22542,32,2,427,1
22543,32,2,445,1
22544,32,2,645,1
22545,32,1,406,1
22546,32,2,585,1
22547,32,2,540,1
22548,32,2,505,1
22549,32,1,552,1
22550,32,2,493,1
22551,32,2,419,1
22552,32,2,461,1
22553,32,1,453,1
22554,32,1,406,1
22555,32,1,401,1
22556,32,1,427,1
22557,32,1,389,1
22558,32,1,584,1
22559,32,1,420,1
22656,32,1,675,1
22657,32,1,451,1
22658,32,2,412,1
22659,32,2,350,1
22660,32,2,338,0
22661,32,2,492,1
22662,32,1,363,1
22663,32,2,439,1
22664,32,2,433,1
22665,32,2,578,1
22666,32,1,541,1
22667,32,1,563,1
22668,32,2,479,1
22669,32,2,606,1
22670,32,2,481,1
22671,32,1,512,1
22672,32,2,430,1
22673,32,1,600,1
22674,32,1,418,1
22675,32,2,420,1
22676,32,1,390,1
22677,32,1,474,1
22678,32,1,450,1
22679,32,1,482,1
22680,32,2,466,1
22681,32,1,394,0
22682,32,1,401,1
22683,32,2,732,1
22684,32,1,561,1
22685,32,2,469,1
22686,32,2,501,1
22687,32,1,444,1
22784,32,2,603,0
22785,32,2,690,1
22786,32,2,433,1
22787,32,2,379,0
22788,32,1,506,1
22789,32,2,433,1
22790,32,2,410,1
22791,32,1,492,1
22792,32,1,476,1
22793,32,2,484,1
22794,32,1,451,1
22795,32,1,484,1
22796,32,1,459,1
22797,32,1,412,1
22798,32,2,582,1
22799,32,1,449,1
22800,32,2,474,1
22801,32,1,498,1
22802,32,1,473,1
22803,32,1,473,1
22804,32,2,545,1
22805,32,2,477,1
22806,32,1,468,1
22807,32,1,468,1
22808,32,2,540,1
22809,32,1,473,1
22810,32,2,585,1
22811,32,1,412,1
22812,32,2,502,1
22813,32,2,421,1
22814,32,1,471,1
22815,32,2,471,1
22912,32,1,511,1
22913,32,2,604,1
22914,32,2,519,1
22915,32,1,597,1
22916,32,1,416,1
22917,32,2,570,1
22918,32,2,446,1
22919,32,2,438,1
22920,32,1,472,1
22921,32,1,536,1
22922,32,2,485,1
22923,32,2,492,1
22924,32,1,364,1
22925,32,2,456,1
22926,32,2,416,1
22927,32,2,386,1
22928,32,2,462,1
22929,32,1,422,1
22930,32,2,400,1
22931,32,1,442,1
22932,32,1,428,1
22933,32,1,405,1
22934,32,1,424,1
22935,32,1,378,1
22936,32,1,405,1
22937,32,2,424,1
22938,32,2,482,1
22939,32,1,441,1
22940,32,1,426,1
22941,32,1,452,1
22942,32,2,444,1
22943,32,2,397,1
23040,32,1,515,1
23041,32,1,401,1
23042,32,2,420,1
23043,32,1,414,1
23044,32,2,384,0
23045,32,1,496,1
23046,32,1,510,1
23047,32,1,524,1
23048,32,2,667,1
23049,32,2,515,1
23050,32,1,425,1
23051,32,2,675,1
23052,32,2,475,1
23053,32,1,435,1
23054,32,1,492,1
23055,32,2,451,1
23056,32,2,524,1
23057,32,2,562,1
23058,32,1,422,1
23059,32,2,536,1
23060,32,2,518,1
23061,32,1,604,1
23062,32,2,526,1
23063,32,1,540,1
23064,32,1,498,1
23065,32,2,472,1
23066,32,2,456,1
23067,32,1,425,1
23068,32,1,491,1
23069,32,2,545,1
23070,32,1,454,1
23071,32,2,479,1
23168,32,2,689,1
23169,32,2,672,1
23170,32,1,496,1
23171,32,1,487,1
23172,32,1,374,1
23173,32,1,401,1
23174,32,2,420,1
23175,32,2,494,1
23176,32,2,501,1
23177,32,1,467,1
23178,32,2,523,1
23179,32,1,417,1
23180,32,1,443,1
23181,32,1,444,1
23182,32,2,437,1
23183,32,2,470,1
23184,32,1,542,1
23185,32,2,491,1
23186,32,1,483,1
23187,32,1,450,1
23188,32,1,403,1
23189,32,2,462,1
23190,32,2,398,1
23191,32,1,392,1
23192,32,2,516,1
23193,32,2,538,1
23194,32,1,487,1
23195,32,2,630,1
23196,32,1,608,1
23197,32,2,586,1
23198,32,2,494,1
23199,32,1,476,1
23424,4,2,578,1
23425,4,1,342,1
23426,4,2,427,1
23427,4,2,356,1
23428,4,2,369,1
23429,4,2,445,1
23430,4,2,414,1
23431,4,1,360,1
23432,4,2,468,1
23433,4,1,636,1
23434,4,2,485,1
23435,4,2,661,0
23436,4,2,857,1
23437,4,1,418,1
23438,4,1,868,0
23439,4,2,577,1
23440,4,2,1332,1
23441,4,2,482,1
23442,4,1,769,1
23443,4,2,509,1
23444,4,1,468,1
23445,4,1,1244,1
23446,4,1,549,1
23447,4,1,617,1
23448,4,1,395,1
23449,4,2,525,1
23450,4,1,659,1
23451,4,1,499,1
23452,4,1,1218,1
23453,4,1,524,1
23454,4,2,530,1
23455,4,1,832,1
23552,4,2,876,1
23553,4,1,476,1
23554,4,1,380,1
23555,4,1,447,1
23556,4,1,504,1
23557,4,1,430,1
23558,4,2,447,1
23559,4,2,480,1
23560,4,2,423,1
23561,4,2,505,1
23562,4,1,448,1
23563,4,1,424,1
23564,4,1,442,1
23565,4,1,803,1
23566,4,1,542,1
23567,4,2,507,1
23568,4,2,722,1
23569,4,2,584,1
23570,4,1,955,1
23571,4,2,544,1
23572,4,2,517,1
23573,4,1,1355,1
23574,4,2,432,1
23575,4,2,473,1
23576,4,1,793,1
23577,4,1,460,1
23578,4,2,748,1
23579,4,2,1001,1
23580,4,1,764,1
23581,4,2,624,1
23582,4,1,642,1
23583,4,2,555,1
23680,4,1,854,1
23681,4,2,534,1
23682,4,2,724,1
23683,4,1,466,1
23684,4,2,538,1
23685,4,2,463,1
23686,4,2,575,1
23687,4,1,1251,1
23688,4,2,492,1
23689,4,2,444,1
23690,4,1,1652,1
23691,4,1,3414,1
23692,4,2,705,1
23693,4,2,575,1
23694,4,2,403,1
23695,4,2,510,1
23696,4,1,396,1
23697,4,1,359,1
23698,4,2,427,1
23699,4,1,445,1
23700,4,1,669,1
23701,4,2,853,1
23702,4,2,374,1
23703,4,1,434,1
23704,4,1,396,1
23705,4,1,446,1
23706,4,2,503,1
23707,4,2,486,1
23708,4,1,1108,1
23709,4,1,451,1
23710,4,1,908,0
23711,4,1,671,1
23808,4,2,626,1
23809,4,1,644,1
23810,4,1,485,1
23811,4,2,396,1
23812,4,2,607,1
23813,4,1,418,1
23814,4,1,388,1
23815,4,2,391,1
23816,4,1,386,1
23817,4,1,389,1
23818,4,1,441,1
23819,4,1,410,1
23820,4,1,516,1
23821,4,2,1346,1
23822,4,2,527,1
23823,4,1,373,1
23824,4,1,473,1
23825,4,2,768,1
23826,4,1,596,1
23827,4,1,486,1
23828,4,2,486,1
23829,4,1,349,1
23830,4,1,522,1
23831,4,2,488,1
23832,4,2,679,1
23833,4,2,567,1
23834,4,2,491,1
23835,4,2,962,1
23836,4,1,374,1
23837,4,2,418,1
23838,4,2,452,1
23839,4,2,757,1
23936,4,1,642,0
23937,4,1,360,1
23938,4,2,364,1
23939,4,1,512,1
23940,4,1,414,1
23941,4,1,584,1
23942,4,2,443,1
23943,4,1,396,1
23944,4,1,398,1
23945,4,2,489,1
23946,4,2,512,1
23947,4,2,566,1
23948,4,2,554,1
23949,4,2,591,1
23950,4,2,683,1
23951,4,1,466,1
23952,4,1,1290,1
23953,4,1,434,1
23954,4,2,419,1
23955,4,2,1285,1
23956,4,1,397,1
23957,4,2,431,1
23958,4,1,425,1
23959,4,2,467,1
23960,4,2,387,1
23961,4,1,462,1
23962,4,2,486,1
23963,4,1,405,1
23964,4,2,432,1
23965,4,1,377,1
23966,4,1,365,1
23967,4,2,625,1
24064,4,1,838,1
24065,4,2,567,1
24066,4,2,483,1
24067,4,2,1378,0
24068,4,1,803,1
24069,4,2,525,1
24070,4,2,443,1
24071,4,1,468,1
24072,4,1,532,1
24073,4,1,1122,1
24074,4,1,592,1
24075,4,1,1243,1
24076,4,2,636,1
24077,4,1,414,1
24078,4,2,408,1
24079,4,2,346,1
24080,4,1,455,1
24081,4,2,384,1
24082,4,1,403,1
24083,4,2,453,1
24084,4,1,438,1
24085,4,2,496,1
24086,4,2,470,1
24087,4,2,694,1
24088,4,2,468,1
24089,4,1,420,1
24090,4,2,462,1
24091,4,1,382,1
24092,4,1,417,1
24093,4,1,387,1
24094,4,2,511,1
24095,4,1,573,1
24416,5,1,425,1
24417,5,1,395,1
24418,5,2,406,1
24419,5,1,425,1
24420,5,2,499,1
24421,5,2,441,0
24422,5,2,471,1
24423,5,1,415,1
24424,5,1,409,1
24425,5,2,364,1
24426,5,1,376,1
24427,5,2,380,1
24428,5,1,439,1
24429,5,1,401,1
24430,5,1,435,1
24431,5,1,389,1
24432,5,1,400,1
24433,5,1,451,1
24434,5,1,531,1
24435,5,2,521,1
24436,5,2,423,1
24437,5,2,537,1
24438,5,1,566,1
24439,5,2,394,1
24440,5,1,445,1
24441,5,2,502,1
24442,5,1,427,1
24443,5,2,429,1
24444,5,2,390,1
24445,5,2,505,1
24446,5,2,440,1
24447,5,2,385,1
24544,5,2,519,0
24545,5,2,489,1
24546,5,1,481,1
24547,5,1,448,1
24548,5,1,401,1
24549,5,1,427,1
24550,5,1,477,1
24551,5,2,451,1
24552,5,1,500,1
24553,5,2,499,1
24554,5,2,513,1
24555,5,2,455,1
24556,5,2,448,1
24557,5,1,433,1
24558,5,1,434,1
24559,5,2,483,1
24560,5,2,587,1
24561,5,2,534,1
24562,5,2,499,1
24563,5,1,434,1
24564,5,2,427,1
24565,5,1,453,1
24566,5,1,430,1
24567,5,1,455,1
24568,5,1,400,1
24569,5,1,418,1
24570,5,2,676,1
24571,5,1,652,1
24572,5,1,444,1
24573,5,2,405,1
24574,5,2,480,1
24575,5,2,463,1
24672,5,1,599,1
24673,5,1,442,1
24674,5,1,395,1
24675,5,1,438,1
24676,5,2,487,1
24677,5,1,390,1
24678,5,1,426,1
24679,5,1,484,1
24680,5,2,443,1
24681,5,1,412,1
24682,5,1,446,1
24683,5,1,366,1
24684,5,1,402,1
24685,5,1,373,1
24686,5,2,433,1
24687,5,1,386,1
24688,5,2,470,1
24689,5,1,430,1
24690,5,2,455,1
24691,5,1,408,1
24692,5,2,370,1
24693,5,2,390,1
24694,5,2,370,1
24695,5,2,390,1
24696,5,2,473,0
24697,5,2,470,1
24698,5,2,502,1
24699,5,2,452,1
24700,5,1,421,1
24701,5,2,503,1
24702,5,2,454,1
24703,5,2,462,1
24800,5,2,729,1
24801,5,1,446,1
24802,5,2,439,1
24803,5,2,456,1
24804,5,1,433,1
24805,5,2,434,1
24806,5,1,452,1
24807,5,1,436,1
24808,5,1,382,1
24809,5,1,409,1
24810,5,2,692,1
24811,5,1,499,1
24812,5,1,450,1
24813,5,1,426,1
24814,5,1,444,1
24815,5,1,396,1
24816,5,1,399,1
24817,5,2,442,1
24818,5,2,523,1
24819,5,2,433,1
24820,5,2,466,1
24821,5,1,459,1
24822,5,2,539,1
24823,5,2,441,0
24824,5,1,534,1
24825,5,2,555,1
24826,5,2,456,1
24827,5,2,672,1
24828,5,1,488,1
24829,5,1,440,1
24830,5,2,529,1
24831,5,2,614,1
24928,5,1,635,1
24929,5,2,469,1
24930,5,1,397,1
24931,5,1,391,1
24932,5,2,467,1
24933,5,2,419,1
24934,5,2,413,1
24935,5,2,399,1
24936,5,1,481,1
24937,5,1,433,1
24938,5,2,618,1
24939,5,1,420,1
24940,5,1,446,1
24941,5,1,431,1
24942,5,1,383,1
24943,5,1,411,1
24944,5,2,373,1
24945,5,2,497,1
24946,5,2,495,1
24947,5,2,526,1
24948,5,1,467,1
24949,5,2,427,1
24950,5,2,469,1
24951,5,1,461,1
24952,5,2,493,1
24953,5,2,523,1
24954,5,1,450,1
24955,5,1,434,1
24956,5,1,412,1
24957,5,1,390,1
24958,5,2,441,1
24959,5,2,482,1
25056,5,1,647,1
25057,5,2,711,1
25058,5,2,469,1
25059,5,2,557,1
25060,5,1,418,1
25061,5,1,427,1
25062,5,1,556,1
25063,5,2,521,1
25064,5,1,423,1
25065,5,2,497,1
25066,5,2,432,1
25067,5,2,449,1
25068,5,2,538,1
25069,5,2,535,1
25070,5,2,581,1
25071,5,1,576,1
25072,5,2,523,1
25073,5,2,562,1
25074,5,1,478,1
25075,5,2,493,1
25076,5,1,492,1
25077,5,1,571,1
25078,5,1,495,1
25079,5,1,582,1
25080,5,2,529,1
25081,5,1,543,1
25082,5,1,483,1
25083,5,2,523,1
25084,5,1,545,1
25085,5,1,533,1
25086,5,2,691,1
25087,5,1,506,1
25248,6,1,468,1
25249,6,2,460,1
25250,6,1,444,1
25251,6,1,477,1
25252,6,1,396,1
25253,6,2,551,1
25254,6,1,355,1
25255,6,1,480,1
25256,6,2,511,1
25257,6,2,445,1
25258,6,2,470,0
25259,6,2,555,1
25260,6,1,527,1
25261,6,1,493,1
25262,6,2,395,0
25263,6,1,523,1
25264,6,2,497,1
25265,6,2,431,1
25266,6,2,641,1
25267,6,1,514,1
25268,6,2,584,1
25269,6,2,499,1
25270,6,2,434,0
25271,6,2,520,1
25272,6,2,430,1
25273,6,1,455,1
25274,6,2,680,1
25275,6,1,447,1
25276,6,1,464,1
25277,6,1,527,1
25278,6,1,437,1
25279,6,1,414,1
25376,6,1,456,1
25377,6,2,465,1
25378,6,2,417,1
25379,6,1,435,1
25380,6,1,460,1
25381,6,1,460,1
25382,6,2,468,1
25383,6,1,460,1
25384,6,1,404,1
25385,6,2,439,0
25386,6,1,461,1
25387,6,2,540,1
25388,6,1,401,1
25389,6,1,452,1
25390,6,1,436,1
25391,6,2,510,1
25392,6,1,460,1
25393,6,2,476,1
25394,6,2,419,1
25395,6,1,381,1
25396,6,2,376,1
25397,6,2,340,1
25398,6,1,465,1
25399,6,2,377,0
25400,6,2,545,1
25401,6,2,518,1
25402,6,1,420,1
25403,6,2,494,1
25404,6,1,564,1
25405,6,2,496,1
25406,6,2,583,1
25407,6,1,411,1
25504,6,2,474,1
25505,6,2,482,1
25506,6,1,529,1
25507,6,2,431,1
25508,6,1,304,1
25509,6,1,383,1
25510,6,1,314,0
25511,6,1,468,1
25512,6,2,580,1
25513,6,1,528,1
25514,6,1,477,1
25515,6,2,573,1
25516,6,2,465,1
25517,6,1,521,1
25518,6,1,463,1
25519,6,2,431,1
25520,6,2,464,0
25521,6,1,501,1
25522,6,2,571,1
25523,6,1,423,1
25524,6,2,529,1
25525,6,2,479,1
25526,6,1,486,1
25527,6,1,477,1
25528,6,1,445,1
25529,6,2,406,1
25530,6,2,576,1
25531,6,1,428,1
25532,6,2,373,0
25533,6,1,453,0
25534,6,2,563,1
25535,6,2,463,1
25632,6,1,419,1
25633,6,1,341,1
25634,6,1,242,0
25635,6,1,448,1
25636,6,2,673,1
25637,6,2,521,1
25638,6,1,471,1
25639,6,2,463,1
25640,6,2,567,1
25641,6,2,459,1
25642,6,1,476,1
25643,6,1,444,1
25644,6,2,564,1
25645,6,2,464,1
25646,6,1,456,1
25647,6,1,449,1
25648,6,1,418,1
25649,6,1,412,1
25650,6,1,462,1
25651,6,2,430,1
25652,6,1,439,1
25653,6,2,440,1
25654,6,2,346,1
25655,6,1,454,1
25656,6,2,415,1
25657,6,2,465,1
25658,6,2,609,1
25659,6,1,484,1
25660,6,2,331,1
25661,6,2,417,0
25662,6,2,511,1
25663,6,1,444,1
25760,6,1,430,1
25761,6,2,439,1
25762,6,1,424,1
25763,6,1,354,1
25764,6,2,431,1
25765,6,2,648,1
25766,6,1,393,1
25767,6,1,396,1
25768,6,1,374,1
25769,6,2,530,1
25770,6,2,400,1
25771,6,1,338,1
25772,6,1,376,1
25773,6,1,396,1
25774,6,2,478,1
25775,6,2,318,0
25776,6,1,432,1
25777,6,2,537,1
25778,6,1,455,1
25779,6,1,479,1
25780,6,2,566,1
25781,6,1,418,1
25782,6,2,572,1
25783,6,2,552,1
25784,6,2,517,1
25785,6,2,387,1
25786,6,2,398,0
25787,6,1,405,1
25788,6,1,400,1
25789,6,2,490,1
25790,6,1,378,1
25791,6,2,525,1
25888,6,1,492,1
25889,6,2,522,1
25890,6,2,448,1
25891,6,2,425,0
25892,6,2,471,1
25893,6,2,583,1
25894,6,2,531,1
25895,6,1,400,1
25896,6,1,507,1
25897,6,1,561,1
25898,6,2,453,1
25899,6,1,414,1
25900,6,2,408,0
25901,6,1,407,1
25902,6,2,402,1
25903,6,1,437,1
25904,6,2,390,0
25905,6,1,398,1
25906,6,2,576,1
25907,6,2,412,1
25908,6,1,430,1
25909,6,1,335,1
25910,6,1,420,1
25911,6,2,518,1
25912,6,2,389,1
25913,6,1,472,1
25914,6,1,424,1
25915,6,1,482,1
25916,6,1,529,1
25917,6,2,423,1
25918,6,2,409,1
25919,6,1,331,1
26176,7,1,455,1
26177,7,1,471,1
26178,7,1,472,1
26179,7,2,528,1
26180,7,1,429,1
26181,7,1,382,1
26182,7,2,474,1
26183,7,2,610,1
26184,7,1,412,1
26185,7,2,558,1
26186,7,2,490,1
26187,7,1,458,1
26188,7,2,442,1
26189,7,1,532,1
26190,7,2,569,1
26191,7,1,461,1
26192,7,2,509,1
26193,7,2,516,1
26194,7,1,450,1
26195,7,2,586,1
26196,7,1,445,1
26197,7,1,502,1
26198,7,1,444,1
26199,7,1,397,1
26200,7,2,464,1
26201,7,2,536,1
26202,7,2,477,1
26203,7,1,460,1
26204,7,1,397,1
26205,7,2,583,1
26206,7,2,459,1
26207,7,2,491,1
26304,7,2,605,1
26305,7,2,560,1
26306,7,1,476,1
26307,7,1,459,1
26308,7,2,579,1
26309,7,1,502,1
26310,7,2,485,1
26311,7,1,452,1
26312,7,2,485,1
26313,7,2,444,1
26314,7,2,573,1
26315,7,2,529,1
26316,7,1,559,1
26317,7,1,483,1
26318,7,1,499,1
26319,7,2,545,1
26320,7,2,478,1
26321,7,2,501,1
26322,7,2,428,1
26323,7,2,493,1
26324,7,1,500,1
26325,7,1,427,1
26326,7,1,468,1
26327,7,1,444,1
26328,7,1,453,1
26329,7,1,430,1
26330,7,2,487,0
26331,7,2,427,1
26332,7,1,500,1
26333,7,1,459,1
26334,7,2,532,1
26335,7,1,425,1
26432,7,1,568,1
26433,7,2,444,1
26434,7,2,429,1
26435,7,1,414,1
26436,7,1,408,1
26437,7,1,435,1
26438,7,1,436,1
26439,7,1,510,1
26440,7,1,372,1
26441,7,2,800,1
26442,7,1,491,1
26443,7,2,426,0
26444,7,1,489,1
26445,7,2,616,1
26446,7,2,450,1
26447,7,2,531,1
26448,7,2,567,1
26449,7,2,539,1
26450,7,1,472,1
26451,7,2,448,1
26452,7,2,449,1
26453,7,1,570,1
26454,7,2,494,1
26455,7,1,405,1
26456,7,1,447,1
26457,7,2,504,1
26458,7,2,447,1
26459,7,1,415,1
26460,7,1,393,1
26461,7,1,388,1
26462,7,2,487,1
26463,7,2,503,1
26560,7,1,465,1
26561,7,2,449,1
26562,7,2,473,1
26563,7,1,393,1
26564,7,1,452,1
26565,7,1,349,1
26566,7,2,457,1
26567,7,1,370,1
26568,7,2,598,1
26569,7,2,457,1
26570,7,1,457,1
26571,7,1,490,1
26572,7,1,377,1
26573,7,2,485,1
26574,7,2,564,1
26575,7,1,384,1
26576,7,1,395,1
26577,7,2,438,1
26578,7,2,599,1
26579,7,1,586,1
26580,7,2,526,1
26581,7,2,508,1
26582,7,2,410,1
26583,7,1,468,1
26584,7,1,420,1
26585,7,2,462,1
26586,7,2,430,1
26587,7,1,544,1
26588,7,2,468,1
26589,7,1,388,1
26590,7,2,528,1
26591,7,1,453,1
26688,7,2,659,1
26689,7,1,404,1
26690,7,2,502,1
26691,7,1,445,1
26692,7,2,446,1
26693,7,2,430,1
26694,7,1,480,1
26695,7,2,463,1
26696,7,2,431,1
26697,7,1,552,1
26698,7,1,469,1
26699,7,1,445,1
26700,7,1,510,1
26701,7,1,420,1
26702,7,2,486,1
26703,7,2,533,1
26704,7,2,579,1
26705,7,1,558,1
26706,7,1,530,1
26707,7,1,431,1
26708,7,2,552,1
26709,7,2,501,1
26710,7,2,460,1
26711,7,2,420,1
26712,7,2,510,1
26713,7,1,732,1
26714,7,2,441,1
26715,7,1,755,1
26716,7,1,463,1
26717,7,1,447,1
26718,7,1,424,1
26719,7,2,426,0
26816,7,1,537,0
26817,7,1,403,1
26818,7,1,453,1
26819,7,2,438,0
26820,7,2,476,1
26821,7,1,371,1
26822,7,2,455,1
26823,7,1,384,1
26824,7,1,355,1
26825,7,1,448,1
26826,7,2,409,0
26827,7,2,592,1
26828,7,1,427,1
26829,7,1,468,1
26830,7,1,436,1
26831,7,2,454,1
26832,7,2,479,1
26833,7,1,470,1
26834,7,1,478,1
26835,7,1,517,1
26836,7,1,803,1
26837,7,2,598,1
26838,7,2,761,1
26839,7,1,397,1
26840,7,2,536,1
26841,7,2,589,1
26842,7,2,472,1
26843,7,2,464,1
26844,7,1,392,1
26845,7,2,484,1
26846,7,2,459,0
26847,7,2,480,1
27008,8,2,726,1
27009,8,1,395,1
27010,8,2,526,1
27011,8,2,475,1
27012,8,1,419,1
27013,8,1,373,1
27014,8,1,433,1
27015,8,2,347,0
27016,8,1,404,1
27017,8,1,422,1
27018,8,2,416,1
27019,8,1,458,1
27020,8,1,451,1
27021,8,2,356,0
27022,8,2,573,1
27023,8,1,433,1
27024,8,1,458,1
27025,8,2,507,1
27026,8,1,402,1
27027,8,2,500,1
27028,8,2,715,1
27029,8,1,457,1
27030,8,2,410,1
27031,8,2,524,1
27032,8,1,410,1
27033,8,1,412,1
27034,8,2,422,1
27035,8,2,504,1
27036,8,2,527,1
27037,8,1,436,1
27038,8,1,397,1
27039,8,2,560,1
27136,8,2,710,1
27137,8,2,388,0
27138,8,1,404,1
27139,8,1,414,1
27140,8,1,376,1
27141,8,1,460,1
27142,8,1,364,1
27143,8,2,416,1
27144,8,2,474,0
27145,8,1,494,1
27146,8,1,357,1
27147,8,2,410,1
27148,8,1,428,1
27149,8,1,421,1
27150,8,2,567,1
27151,8,2,507,1
27152,8,2,514,1
27153,8,2,448,1
27154,8,1,488,1
27155,8,1,376,1
27156,8,2,540,1
27157,8,2,465,1
27158,8,2,553,1
27159,8,1,606,1
27160,8,1,377,1
27161,8,1,428,1
27162,8,1,357,1
27163,8,2,362,1
27164,8,2,582,1
27165,8,2,385,1
27166,8,1,557,1
27167,8,2,376,0
27264,8,1,436,1
27265,8,1,405,1
27266,8,1,312,1
27267,8,2,414,1
27268,8,1,360,1
27269,8,2,436,1
27270,8,1,373,1
27271,8,1,377,1
27272,8,2,548,1
27273,8,2,553,1
27274,8,1,374,1
27275,8,1,426,1
27276,8,1,396,1
27277,8,2,351,0
27278,8,2,384,1
27279,8,1,379,1
27280,8,1,334,1
27281,8,2,372,0
27282,8,2,476,1
27283,8,2,420,1
27284,8,2,414,1
27285,8,1,335,1
27286,8,2,390,1
27287,8,2,624,1
27288,8,1,370,1
27289,8,2,534,1
27290,8,1,363,1
27291,8,1,343,1
27292,8,2,340,1
27293,8,2,353,1
27294,8,2,366,1
27295,8,1,418,1
27392,8,2,654,1
27393,8,1,415,1
27394,8,2,593,1
27395,8,1,364,1
27396,8,1,352,1
27397,8,2,684,1
27398,8,2,363,1
27399,8,2,527,1
27400,8,2,436,1
27401,8,1,414,1
27402,8,1,368,1
27403,8,2,388,1
27404,8,1,383,1
27405,8,2,362,1
27406,8,2,502,1
27407,8,2,485,1
27408,8,2,644,1
27409,8,2,389,1
27410,8,1,384,1
27411,8,1,356,1
27412,8,1,392,1
27413,8,2,540,1
27414,8,1,425,1
27415,8,1,387,1
27416,8,1,558,1
27417,8,1,411,1
27418,8,1,413,1
27419,8,1,415,1
27420,8,2,409,1
27421,8,2,492,1
27422,8,2,475,1
27423,8,1,451,0
27520,8,1,503,1
27521,8,2,390,1
27522,8,1,361,1
27523,8,2,293,0
27524,8,2,632,1
27525,8,1,361,1
27526,8,1,429,1
27527,8,1,335,1
27528,8,1,396,1
27529,8,2,423,1
27530,8,2,393,1
27531,8,1,419,1
27532,8,2,421,0
27533,8,2,380,0
27534,8,1,460,1
27535,8,1,460,1
27536,8,1,332,1
27537,8,2,513,1
27538,8,1,391,1
27539,8,2,338,1
27540,8,2,416,1
27541,8,2,450,1
27542,8,2,602,1
27543,8,1,429,1
27544,8,1,382,1
27545,8,2,394,0
27546,8,2,441,1
27547,8,2,426,1
27548,8,1,420,1
27549,8,1,454,1
27550,8,1,319,0
27551,8,2,424,1
27648,8,2,739,1
27649,8,2,400,1
27650,8,2,379,1
27651,8,1,438,1
27652,8,2,448,1
27653,8,2,408,1
27654,8,1,411,1
27655,8,2,389,1
27656,8,1,328,1
27657,8,1,422,1
27658,8,1,360,1
27659,8,1,324,1
27660,8,2,282,1
27661,8,2,425,0
27662,8,1,647,1
27663,8,1,272,1
27664,8,1,288,0
27665,8,2,363,1
27666,8,1,423,1
27667,8,2,257,0
27668,8,2,334,1
27669,8,1,275,1
27670,8,2,259,0
27671,8,1,440,1
27672,8,2,249,0
27673,8,1,422,1
27674,8,2,360,1
27675,8,1,452,1
27676,8,1,469,1
27677,8,1,437,1
27678,8,2,398,0
27679,8,2,382,1
28000,9,2,1232,1
28001,9,1,665,1
28002,9,1,465,1
28003,9,1,465,1
28004,9,2,625,1
28005,9,1,459,1
28006,9,2,563,1
28007,9,1,640,1
28008,9,1,409,1
28009,9,2,540,1
28010,9,1,417,1
28011,9,1,507,1
28012,9,2,578,1
28013,9,1,581,1
28014,9,1,504,1
28015,9,1,791,1
28016,9,2,627,1
28017,9,2,540,1
28018,9,2,561,1
28019,9,1,445,1
28020,9,1,518,1
28021,9,2,620,1
28022,9,2,574,1
28023,9,2,554,1
28024,9,2,567,1
28025,9,1,483,1
28026,9,2,586,1
28027,9,2,510,1
28028,9,1,636,1
28029,9,2,613,1
28030,9,1,655,1
28031,9,2,592,1
28128,9,1,859,1
28129,9,1,436,1
28130,9,1,485,1
28131,9,1,444,1
28132,9,2,533,1
28133,9,1,538,1
28134,9,1,992,0
28135,9,1,528,1
28136,9,2,541,1
28137,9,1,482,1
28138,9,2,410,0
28139,9,2,664,1
28140,9,2,688,1
28141,9,2,528,1
28142,9,2,549,0
28143,9,2,606,1
28144,9,2,617,1
28145,9,1,499,1
28146,9,1,426,1
28147,9,2,556,1
28148,9,1,681,1
28149,9,1,704,1
28150,9,2,567,1
28151,9,2,771,1
28152,9,1,926,1
28153,9,2,604,1
28154,9,1,486,1
28155,9,2,534,1
28156,9,2,483,1
28157,9,2,562,1
28158,9,1,542,0
28159,9,1,632,1
28256,9,2,719,1
28257,9,1,541,1
28258,9,1,474,1
28259,9,1,442,1
28260,9,1,500,1
28261,9,1,418,1
28262,9,2,588,1
28263,9,1,488,1
28264,9,1,391,1
28265,9,1,514,1
28266,9,1,432,1
28267,9,1,442,1
28268,9,2,483,1
28269,9,2,458,0
28270,9,2,463,1
28271,9,2,527,1
28272,9,1,444,0
28273,9,1,449,1
28274,9,2,562,1
28275,9,1,566,1
28276,9,2,530,1
28277,9,1,455,1
28278,9,2,520,1
28279,9,2,502,1
28280,9,2,637,1
28281,9,2,534,1
28282,9,2,540,1
28283,9,1,441,1
28284,9,2,554,1
28285,9,2,559,1
28286,9,2,516,1
28287,9,1,546,1
28384,9,2,860,1
28385,9,1,444,1
28386,9,1,452,1
28387,9,1,461,1
28388,9,2,557,1
28389,9,1,506,1
28390,9,2,553,1
28391,9,2,517,1
28392,9,2,475,1
28393,9,2,675,1
28394,9,2,571,1
28395,9,1,424,1
28396,9,2,433,1
28397,9,2,491,1
28398,9,2,394,1
28399,9,2,437,0
28400,9,2,651,1
28401,9,1,419,1
28402,9,1,445,1
28403,9,1,558,1
28404,9,2,555,1
28405,9,1,544,1
28406,9,1,932,1
28407,9,2,458,0
28408,9,1,599,1
28409,9,1,490,1
28410,9,1,505,1
28411,9,1,440,1
28412,9,2,497,1
28413,9,1,504,1
28414,9,1,463,1
28415,9,2,623,1
28512,9,1,471,1
28513,9,1,399,1
28514,9,1,450,1
28515,9,1,426,1
28516,9,1,452,1
28517,9,1,436,1
28518,9,1,478,1
28519,9,1,557,1
28520,9,1,418,1
28521,9,2,668,1
28522,9,2,564,1
28523,9,1,424,1
28524,9,2,498,1
28525,9,2,473,1
28526,9,2,513,1
28527,9,1,431,1
28528,9,2,456,1
28529,9,1,529,1
28530,9,1,678,1
28531,9,2,534,1
28532,9,1,395,1
28533,9,2,486,1
28534,9,2,501,1
28535,9,2,532,1
28536,9,1,521,1
28537,9,2,543,1
28538,9,2,612,1
28539,9,1,558,1
28540,9,2,531,1
28541,9,2,448,1
28542,9,2,472,1
