TrialIndex,Subject,Congruence,ResponseTime,Correct
160,1,2,579,0
161,1,2,553,0
162,1,2,491,1
163,1,1,434,1
164,1,2,435,1
165,1,1,405,1
166,1,1,471,1
167,1,2,391,1
168,1,2,451,1
169,1,2,571,0
170,1,2,540,0
171,1,1,438,0
172,1,1,439,0
173,1,2,537,1
174,1,2,498,1
175,1,1,369,1
176,1,1,397,1
177,1,1,376,1
178,1,2,372,0
179,1,1,488,1
180,1,1,359,1
181,1,2,468,1
182,1,2,324,1
183,1,1,434,1
184,1,1,451,1
185,1,2,500,1
186,1,2,475,1
187,1,1,491,1
188,1,1,450,1
189,1,1,483,1
190,1,1,426,1
191,1,2,412,0
288,1,1,491,1
289,1,2,442,1
290,1,1,532,1
291,1,1,621,1
292,1,2,588,1
293,1,1,452,1
294,1,2,429,1
295,1,2,454,1
296,1,1,431,1
297,1,2,472,1
298,1,1,488,1
299,1,2,487,1
300,1,1,439,1
301,1,1,480,0
302,1,2,399,1
303,1,1,410,0
304,1,2,468,0
305,1,1,420,1
306,1,1,358,1
307,1,2,499,0
308,1,1,488,1
309,1,2,544,1
310,1,1,537,1
311,1,1,427,1
312,1,2,404,1
313,1,1,471,1
314,1,2,647,1
315,1,2,428,1
316,1,2,486,1
317,1,2,637,1
318,1,1,411,1
319,1,2,405,0
416,1,1,458,1
417,1,1,379,1
418,1,2,606,0
419,1,1,357,1
420,1,2,394,1
421,1,2,381,1
422,1,2,544,1
423,1,1,505,1
424,1,2,469,1
425,1,1,389,1
426,1,1,448,1
427,1,2,385,0
428,1,1,540,0
429,1,2,606,1
430,1,1,381,1
431,1,1,384,1
432,1,2,444,0
433,1,1,380,1
434,1,1,464,1
435,1,2,512,1
436,1,2,354,1
437,1,2,487,1
438,1,1,414,1
439,1,1,472,0
440,1,2,408,0
441,1,1,523,1
442,1,2,470,1
443,1,2,486,1
444,1,1,437,1
445,1,1,350,1
446,1,2,419,1
447,1,2,461,0
544,1,1,549,1
545,1,2,407,1
546,1,1,449,1
547,1,2,514,1
548,1,1,476,0
549,1,2,420,0
550,1,2,646,1
551,1,2,483,1
552,1,2,458,1
553,1,2,459,1
554,1,1,508,1
555,1,2,415,0
556,1,2,521,1
557,1,1,460,0
558,1,2,604,1
559,1,1,443,1
560,1,1,508,1
561,1,2,423,0
562,1,1,504,1
563,1,1,444,1
564,1,2,596,1
565,1,2,339,0
566,1,1,497,1
567,1,2,503,1
568,1,1,419,1
569,1,1,413,1
570,1,1,463,1
571,1,2,591,1
572,1,1,455,1
573,1,1,367,1
574,1,2,523,1
575,1,1,454,1
672,1,2,655,0
673,1,1,420,1
674,1,1,390,1
675,1,2,481,1
676,1,2,409,1
677,1,1,379,1
678,1,1,487,1
679,1,2,406,1
680,1,1,465,1
681,1,1,425,1
682,1,1,379,0
683,1,2,998,0
684,1,1,501,1
685,1,2,385,0
686,1,1,444,1
687,1,2,485,1
688,1,2,524,1
689,1,1,374,1
690,1,1,506,1
691,1,2,526,1
692,1,1,368,0
693,1,2,412,1
694,1,1,406,1
695,1,1,369,0
696,1,2,413,0
697,1,1,431,1
698,1,1,352,1
699,1,2,437,1
700,1,2,534,1
701,1,2,504,1
702,1,2,578,1
703,1,2,578,0
800,1,1,405,0
801,1,2,520,1
802,1,2,403,1
803,1,1,437,1
804,1,1,383,0
805,1,2,410,1
806,1,2,620,1
807,1,2,450,1
808,1,2,451,0
809,1,2,436,1
810,1,1,349,1
811,1,1,378,1
812,1,1,404,1
813,1,1,431,1
814,1,1,288,1
815,1,2,527,0
816,1,1,361,1
817,1,2,373,1
818,1,1,401,1
819,1,2,284,0
820,1,1,355,1
821,1,1,352,1
822,1,1,429,1
823,1,1,270,1
824,1,2,334,1
825,1,2,283,0
826,1,2,450,1
827,1,2,331,0
828,1,1,256,0
829,1,2,481,0
830,1,1,512,1
831,1,2,627,1
1120,10,2,383,1
1121,10,1,330,1
1122,10,2,296,0
1123,10,1,326,1
1124,10,1,388,1
1125,10,2,359,1
1126,10,1,380,1
1127,10,1,311,1
1128,10,1,333,1
1129,10,1,442,1
1130,10,1,243,1
1131,10,1,308,1
1132,10,2,355,1
1133,10,1,343,1
1134,10,1,300,1
1135,10,2,315,1
1136,10,2,425,0
1137,10,2,339,1
1138,10,2,456,1
1139,10,2,321,1
1140,10,2,423,1
1141,10,1,353,1
1142,10,2,373,1
1143,10,1,249,1
1144,10,2,354,1
1145,10,2,454,1
1146,10,2,591,1
1147,10,1,399,0
1148,10,1,346,1
1149,10,2,302,0
1150,10,1,308,1
1151,10,2,411,1
1248,10,2,296,0
1249,10,2,390,1
1250,10,2,402,1
1251,10,1,340,1
1252,10,2,314,1
1253,10,1,344,1
1254,10,1,300,1
1255,10,1,395,1
1256,10,1,310,1
1257,10,2,292,0
1258,10,1,331,1
1259,10,1,264,1
1260,10,1,360,1
1261,10,1,380,1
1262,10,2,271,1
1263,10,1,335,1
1264,10,2,781,1
1265,10,2,397,1
1266,10,1,263,1
1267,10,2,271,1
1268,10,1,335,1
1269,10,1,268,1
1270,10,2,299,0
1271,10,2,282,1
1272,10,2,401,1
1273,10,1,268,1
1274,10,1,252,1
1275,10,1,469,1
1276,10,2,253,0
1277,10,2,341,1
1278,10,2,315,0
1279,10,2,305,0
1376,10,1,204,0
1377,10,2,230,1
1378,10,2,255,0
1379,10,2,216,0
1380,10,1,498,1
1381,10,2,345,1
1382,10,1,381,1
1383,10,2,297,1
1384,10,1,343,1
1385,10,1,276,1
1386,10,2,252,1
1387,10,1,340,1
1388,10,1,314,1
1389,10,2,280,1
1390,10,1,262,0
1391,10,1,270,1
1392,10,2,342,1
1393,10,2,251,0
1394,10,1,340,1
1395,10,1,297,1
1396,10,2,296,1
1397,10,1,326,0
1398,10,1,372,1
1399,10,1,464,1
1400,10,2,392,0
1401,10,2,403,1
1402,10,1,302,1
1403,10,2,332,1
1404,10,2,442,1
1405,10,1,307,1
1406,10,2,338,1
1407,10,2,311,1
1504,10,2,242,0
1505,10,1,412,1
1506,10,1,382,1
1507,10,2,353,0
1508,10,1,342,1
1509,10,2,411,1
1510,10,1,317,1
1511,10,1,410,1
1512,10,1,340,1
1513,10,2,385,1
1514,10,2,493,1
1515,10,2,379,1
1516,10,2,559,1
1517,10,2,232,1
1518,10,1,337,1
1519,10,1,318,0
1520,10,2,228,0
1521,10,1,302,1
1522,10,1,348,1
1523,10,1,401,1
1524,10,1,404,1
1525,10,1,278,1
1526,10,2,454,1
1527,10,2,294,0
1528,10,2,405,1
1529,10,1,400,1
1530,10,1,346,1
1531,10,2,311,1
1532,10,1,365,1
1533,10,2,353,0
1534,10,2,421,1
1535,10,2,383,1
1632,10,1,400,1
1633,10,2,362,1
1634,10,2,462,1
1635,10,1,374,1
1636,10,1,426,1
1637,10,2,372,1
1638,10,2,296,0
1639,10,2,310,1
1640,10,1,308,1
1641,10,1,275,1
1642,10,2,259,1
1643,10,2,243,0
1644,10,1,204,0
1645,10,2,271,0
1646,10,1,454,1
1647,10,1,367,1
1648,10,1,451,1
1649,10,1,404,1
1650,10,1,366,1
1651,10,2,546,1
1652,10,2,292,1
1653,10,2,355,0
1654,10,1,304,1
1655,10,2,390,1
1656,10,2,370,0
1657,10,2,326,0
1658,10,1,356,1
1659,10,2,320,0
1660,10,1,398,1
1661,10,1,449,1
1662,10,1,338,1
1663,10,2,367,0
1760,10,2,294,0
1761,10,2,268,0
1762,10,2,380,1
1763,10,1,376,1
1764,10,1,308,1
1765,10,1,314,1
1766,10,1,368,1
1767,10,1,348,1
1768,10,2,465,1
1769,10,1,353,1
1770,10,2,381,1
1771,10,2,329,1
1772,10,1,366,1
1773,10,1,378,1
1774,10,2,421,1
1775,10,1,303,1
1776,10,1,414,1
1777,10,2,352,1
1778,10,1,365,1
1779,10,1,385,1
1780,10,2,404,1
1781,10,1,359,1
1782,10,2,363,1
1783,10,1,335,1
1784,10,1,357,1
1785,10,2,305,1
1786,10,2,488,1
1787,10,2,343,1
1788,10,1,308,1
1789,10,2,331,0
1790,10,2,328,1
1791,10,2,421,1
1920,11,2,479,0
1921,11,1,390,1
1922,11,1,385,1
1923,11,2,413,0
1924,11,2,543,1
1925,11,2,384,1
1926,11,1,371,1
1927,11,2,351,0
1928,11,1,356,1
1929,11,1,344,1
1930,11,1,357,1
1931,11,1,346,1
1932,11,1,374,1
1933,11,1,346,1
1934,11,1,431,1
1935,11,2,368,0
1936,11,2,372,1
1937,11,2,456,1
1938,11,2,481,1
1939,11,2,336,1
1940,11,2,526,1
1941,11,2,328,0
1942,11,1,421,1
1943,11,2,375,1
1944,11,2,395,1
1945,11,2,342,1
1946,11,1,339,1
1947,11,1,345,1
1948,11,1,365,1
1949,11,1,377,1
1950,11,2,365,1
1951,11,1,369,1
2048,11,1,398,1
2049,11,2,337,0
2050,11,1,382,1
2051,11,2,329,1
2052,11,1,342,0
2053,11,1,412,1
2054,11,2,406,0
2055,11,2,576,1
2056,11,2,448,1
2057,11,2,433,1
2058,11,2,338,0
2059,11,1,344,1
2060,11,1,420,1
2061,11,2,485,1
2062,11,2,349,0
2063,11,1,361,1
2064,11,2,413,0
2065,11,2,631,1
2066,11,1,397,1
2067,11,1,416,1
2068,11,1,426,1
2069,11,1,643,1
2070,11,1,432,1
2071,11,1,394,1
2072,11,2,389,1
2073,11,2,512,1
2074,11,2,402,1
2075,11,1,397,1
2076,11,1,336,1
2077,11,2,365,1
2078,11,2,441,1
2079,11,1,378,1
2176,11,1,396,1
2177,11,1,398,1
2178,11,1,401,1
2179,11,1,340,1
2180,11,2,433,0
2181,11,2,434,0
2182,11,2,428,1
2183,11,2,453,1
2184,11,2,406,1
2185,11,2,296,1
2186,11,1,343,1
2187,11,2,332,0
2188,11,2,433,1
2189,11,1,402,1
2190,11,2,453,1
2191,11,1,326,1
2192,11,1,332,1
2193,11,2,337,0
2194,11,2,374,1
2195,11,2,354,1
2196,11,1,367,1
2197,11,2,371,1
2198,11,1,319,1
2199,11,1,261,1
2200,11,1,341,1
2201,11,1,274,1
2202,11,1,450,1
2203,11,1,347,1
2204,11,2,359,0
2205,11,1,404,1
2206,11,2,423,1
2207,11,2,401,0
2304,11,1,442,1
2305,11,1,355,0
2306,11,1,352,1
2307,11,1,292,1
2308,11,2,340,0
2309,11,2,449,1
2310,11,2,466,0
2311,11,2,314,0
2312,11,2,432,0
2313,11,2,393,1
2314,11,2,532,1
2315,11,1,357,1
2316,11,1,434,1
2317,11,1,363,1
2318,11,1,551,1
2319,11,2,457,0
2320,11,1,401,1
2321,11,2,372,1
2322,11,2,440,1
2323,11,2,401,1
2324,11,1,388,1
2325,11,1,367,1
2326,11,1,394,0
2327,11,1,357,1
2328,11,1,362,1
2329,11,2,350,0
2330,11,2,322,1
2331,11,2,328,0
2332,11,1,397,1
2333,11,2,408,1
2334,11,1,411,1
2335,11,2,365,0
2432,11,2,393,1
2433,11,2,348,0
2434,11,2,337,0
2435,11,1,310,1
2436,11,2,356,0
2437,11,1,393,1
2438,11,1,364,1
2439,11,2,375,1
2440,11,1,355,1
2441,11,2,400,0
2442,11,2,442,1
2443,11,1,339,1
2444,11,1,416,1
2445,11,2,378,1
2446,11,1,326,1
2447,11,1,619,1
2448,11,1,346,0
2449,11,2,334,1
2450,11,2,339,0
2451,11,1,281,0
2452,11,1,408,1
2453,11,2,467,0
2454,11,2,371,0
2455,11,1,391,1
2456,11,1,362,0
2457,11,1,510,1
2458,11,1,401,1
2459,11,2,403,1
2460,11,2,422,1
2461,11,2,344,0
2462,11,1,357,1
2463,11,2,361,1
2560,11,1,399,1
2561,11,2,378,1
2562,11,1,333,1
2563,11,1,378,1
2564,11,1,334,1
2565,11,2,347,0
2566,11,2,480,1
2567,11,1,399,1
2568,11,1,378,1
2569,11,1,429,0
2570,11,1,390,1
2571,11,2,530,1
2572,11,2,331,1
2573,11,2,377,1
2574,11,1,340,1
2575,11,2,369,0
2576,11,2,501,1
2577,11,2,433,1
2578,11,1,410,1
2579,11,2,412,1
2580,11,1,350,1
2581,11,1,347,1
2582,11,1,351,1
2583,11,2,396,1
2584,11,1,367,1
2585,11,1,371,1
2586,11,1,359,1
2587,11,2,363,1
2588,11,2,367,0
2589,11,2,594,1
2590,11,2,369,1
2591,11,2,437,1
2880,12,1,551,1
2881,12,2,464,1
2882,12,1,328,1
2883,12,2,445,1
2884,12,1,430,1
2885,12,1,382,1
2886,12,1,426,1
2887,12,2,427,1
2888,12,2,452,1
2889,12,1,397,1
2890,12,1,376,1
2891,12,2,467,1
2892,12,1,371,1
2893,12,1,415,1
2894,12,1,417,1
2895,12,2,451,1
2896,12,1,332,1
2897,12,2,377,1
2898,12,2,412,1
2899,12,1,398,1
2900,12,2,465,0
2901,12,1,569,1
2902,12,2,473,1
2903,12,1,353,1
2904,12,2,422,1
2905,12,2,448,1
2906,12,2,441,1
2907,12,2,442,1
2908,12,1,371,1
2909,12,1,319,1
2910,12,2,437,1
2911,12,2,391,1
3008,12,1,583,1
3009,12,1,383,1
3010,12,2,442,1
3011,12,1,499,1
3012,12,2,354,1
3013,12,1,391,0
3014,12,2,530,1
3015,12,1,388,1
3016,12,1,383,1
3017,12,1,410,1
3018,12,1,396,1
3019,12,2,503,1
3020,12,2,474,1
3021,12,1,418,1
3022,12,1,356,1
3023,12,2,521,1
3024,12,2,483,1
3025,12,2,443,1
3026,12,2,420,1
3027,12,2,486,1
3028,12,2,349,1
3029,12,2,378,1
3030,12,1,405,1
3031,12,1,352,1
3032,12,1,421,1
3033,12,2,399,1
3034,12,2,441,1
3035,12,1,403,1
3036,12,1,373,1
3037,12,1,417,1
3038,12,2,411,1
3039,12,2,453,1
3136,12,2,526,1
3137,12,1,480,1
3138,12,2,472,1
3139,12,1,504,1
3140,12,2,499,1
3141,12,1,402,1
3142,12,1,388,1
3143,12,2,399,1
3144,12,1,457,1
3145,12,2,522,1
3146,12,2,516,1
3147,12,1,423,1
3148,12,1,337,1
3149,12,2,406,1
3150,12,2,449,1
3151,12,1,362,1
3152,12,1,374,1
3153,12,2,378,1
3154,12,2,421,1
3155,12,1,343,1
3156,12,2,395,0
3157,12,1,398,1
3158,12,1,385,1
3159,12,2,396,1
3160,12,1,383,1
3161,12,1,362,1
3162,12,2,374,1
3163,12,1,274,0
3164,12,1,402,1
3165,12,2,397,1
3166,12,2,375,1
3167,12,2,427,1
3264,12,1,412,1
3265,12,2,494,1
3266,12,2,396,1
3267,12,1,351,1
3268,12,2,388,1
3269,12,2,383,1
3270,12,1,370,1
3271,12,2,366,1
3272,12,2,426,1
3273,12,1,348,1
3274,12,2,456,1
3275,12,1,385,1
3276,12,1,372,1
3277,12,1,400,1
3278,12,2,395,1
3279,12,1,374,1
3280,12,2,458,1
3281,12,2,490,1
3282,12,1,370,1
3283,12,2,366,1
3284,12,1,354,1
3285,12,1,374,1
3286,12,1,394,1
3287,12,1,405,1
3288,12,2,431,1
3289,12,1,393,1
3290,12,2,412,1
3291,12,2,350,1
3292,12,1,371,1
3293,12,1,359,1
3294,12,2,443,1
3295,12,2,380,1
3392,12,2,549,1
3393,12,2,478,1
3394,12,2,373,1
3395,12,2,425,1
3396,12,2,451,1
3397,12,1,388,1
3398,12,1,327,1
3399,12,2,356,1
3400,12,1,361,1
3401,12,1,365,1
3402,12,1,353,1
3403,12,1,366,1
3404,12,2,442,1
3405,12,2,491,1
3406,12,2,362,1
3407,12,1,365,1
3408,12,1,385,1
3409,12,2,581,1
3410,12,2,437,1
3411,12,1,334,1
3412,12,2,363,1
3413,12,1,495,1
3414,12,1,398,1
3415,12,1,369,1
3416,12,2,389,1
3417,12,2,408,1
3418,12,2,403,1
3419,12,1,349,1
3420,12,1,378,1
3421,12,2,389,1
3422,12,1,344,1
3423,12,1,405,1
3520,12,2,568,1
3521,12,2,417,1
3522,12,2,411,1
3523,12,1,365,1
3524,12,2,504,1
3525,12,1,428,1
3526,12,2,493,1
3527,12,2,476,1
3528,12,1,451,1
3529,12,1,468,1
3530,12,2,484,1
3531,12,2,395,1
3532,12,1,478,1
3533,12,2,381,1
3534,12,1,368,1
3535,12,1,428,1
3536,12,1,462,1
3537,12,2,446,1
3538,12,1,502,1
3539,12,1,442,1
3540,12,1,411,1
3541,12,2,373,1
3542,12,2,385,1
3543,12,2,396,1
3544,12,1,399,1
3545,12,2,466,1
3546,12,2,482,1
3547,12,1,409,1
3548,12,1,428,1
3549,12,2,389,1
3550,12,1,384,1
3551,12,1,412,1
3744,13,1,275,1
3745,13,2,267,0
3746,13,2,355,0
3747,13,2,304,0
3748,13,2,807,1
3749,13,2,478,1
3750,13,2,237,0
3751,13,2,382,0
3752,13,1,394,1
3753,13,2,468,1
3754,13,1,188,1
3755,13,2,312,1
3756,13,1,342,1
3757,13,2,267,1
3758,13,1,275,1
3759,13,1,283,0
3760,13,1,330,1
3761,13,2,310,0
3762,13,1,356,1
3763,13,2,265,1
3764,13,1,305,1
3765,13,1,304,1
3766,13,1,190,0
3767,13,1,201,1
3768,13,1,252,1
3769,13,1,205,0
3770,13,2,351,0
3771,13,1,300,1
3772,13,2,195,0
3773,13,1,325,1
3774,13,2,291,1
3775,13,2,378,0
3872,13,2,460,1
3873,13,1,364,1
3874,13,1,448,1
3875,13,2,297,0
3876,13,1,392,1
3877,13,2,579,1
3878,13,1,363,1
3879,13,2,559,1
3880,13,2,407,1
3881,13,2,394,1
3882,13,2,357,1
3883,13,1,337,1
3884,13,2,383,1
3885,13,1,322,1
3886,13,1,336,1
3887,13,2,317,1
3888,13,2,307,1
3889,13,1,306,1
3890,13,1,256,1
3891,13,2,321,0
3892,13,1,327,1
3893,13,2,324,0
3894,13,1,298,1
3895,13,2,377,1
3896,13,1,244,1
3897,13,2,269,0
3898,13,2,413,0
3899,13,1,391,1
3900,13,1,362,1
3901,13,1,302,1
3902,13,1,373,1
3903,13,2,409,1
4000,13,1,377,1
4001,13,1,548,1
4002,13,1,325,1
4003,13,2,363,1
4004,13,1,271,1
4005,13,1,223,1
4006,13,2,329,1
4007,13,2,374,0
4008,13,1,314,1
4009,13,2,200,1
4010,13,2,427,1
4011,13,1,220,1
4012,13,1,270,1
4013,13,2,222,0
4014,13,1,344,1
4015,13,2,325,1
4016,13,1,235,1
4017,13,2,372,1
4018,13,2,240,1
4019,13,2,465,1
4020,13,1,369,1
4021,13,1,317,1
4022,13,2,339,0
4023,13,1,344,1
4024,13,1,349,1
4025,13,2,610,1
4026,13,2,344,0
4027,13,2,365,1
4028,13,2,369,1
4029,13,1,229,1
4030,13,2,198,1
4031,13,1,201,0
4128,13,1,426,1
4129,13,1,220,1
4130,13,1,270,1
4131,13,1,246,0
4132,13,1,294,1
4133,13,1,205,1
4134,13,1,319,1
4135,13,2,509,1
4136,13,2,416,1
4137,13,2,250,0
4138,13,1,371,1
4139,13,2,247,0
4140,13,1,335,1
4141,13,2,244,1
4142,13,2,85,1
4143,13,1,436,1
4144,13,2,358,1
4145,13,2,306,1
4146,13,2,281,0
4147,13,2,288,1
4148,13,1,447,1
4149,13,1,424,1
4150,13,2,370,0
4151,13,2,350,0
4152,13,1,363,1
4153,13,1,351,1
4154,13,2,291,1
4155,13,2,179,1
4156,13,1,237,1
4157,13,2,286,0
4158,13,2,205,1
4159,13,1,552,1
4256,13,1,345,1
4257,13,1,318,1
4258,13,1,316,1
4259,13,2,242,1
4260,13,1,363,1
4261,13,1,119,1
4262,13,1,125,1
4263,13,2,227,1
4264,13,2,84,0
4265,13,2,427,1
4266,13,1,365,1
4267,13,2,193,1
4268,13,1,268,1
4269,13,1,379,1
4270,13,2,166,1
4271,13,2,138,1
4272,13,2,231,0
4273,13,2,249,1
4274,13,2,209,1
4275,13,1,283,1
4276,13,2,219,1
4277,13,1,572,1
4278,13,2,221,0
4279,13,1,159,1
4280,13,1,180,1
4281,13,2,183,1
4282,13,1,138,1
4283,13,1,295,1
4284,13,2,198,0
4285,13,1,184,1
4286,13,2,212,0
4287,13,2,478,1
4384,13,1,396,1
4385,13,1,167,0
4386,13,1,195,1
4387,13,1,325,1
4388,13,2,155,1
4389,13,1,136,1
4390,13,2,181,0
4391,13,1,120,0
4392,13,1,238,1
4393,13,1,255,0
4394,13,2,368,0
4395,13,2,628,1
4396,13,2,754,1
4397,13,2,459,1
4398,13,1,188,0
4399,13,2,223,1
4400,13,2,185,0
4401,13,2,284,1
4402,13,1,195,1
4403,13,1,86,0
4404,13,2,397,1
4405,13,2,240,0
4406,13,1,249,1
4407,13,2,354,1
4408,13,1,358,1
4409,13,2,355,1
4410,13,1,336,1
4411,13,2,141,1
4412,13,2,298,0
4413,13,1,337,1
4414,13,2,254,0
4415,13,1,263,0
4704,14,2,600,1
4705,14,2,584,1
4706,14,1,656,1
4707,14,1,493,1
4708,14,2,708,0
4709,14,2,591,1
4710,14,1,527,1
4711,14,2,545,1
4712,14,1,546,1
4713,14,2,787,1
4714,14,2,555,1
4715,14,2,436,1
4716,14,2,661,1
4717,14,1,482,1
4718,14,2,633,1
4719,14,1,511,1
4720,14,1,402,1
4721,14,1,693,1
4722,14,1,472,1
4723,14,2,672,1
4724,14,1,501,1
4725,14,2,656,1
4726,14,1,541,1
4727,14,1,559,1
4728,14,2,656,1
4729,14,1,773,1
4730,14,2,829,1
4731,14,2,499,1
4732,14,1,546,1
4733,14,1,715,1
4734,14,1,470,1
4735,14,2,678,1
4832,14,1,610,1
4833,14,2,488,0
4834,14,1,752,1
4835,14,2,585,1
4836,14,1,433,1
4837,14,1,538,1
4838,14,1,452,1
4839,14,2,605,1
4840,14,2,588,1
4841,14,1,524,1
4842,14,2,678,1
4843,14,1,458,1
4844,14,2,611,1
4845,14,2,553,1
4846,14,2,579,1
4847,14,2,651,1
4848,14,1,576,1
4849,14,2,616,1
4850,14,1,487,1
4851,14,2,710,1
4852,14,1,537,1
4853,14,1,491,1
4854,14,2,650,1
4855,14,1,527,1
4856,14,2,656,1
4857,14,2,598,1
4858,14,1,541,1
4859,14,1,911,1
4860,14,2,625,1
4861,14,1,480,1
4862,14,2,599,1
4863,14,1,502,1
4960,14,1,597,1
4961,14,2,572,1
4962,14,1,525,1
4963,14,1,448,1
4964,14,2,632,1
4965,14,2,582,1
4966,14,2,678,1
4967,14,1,498,1
4968,14,1,681,1
4969,14,2,589,1
4970,14,2,572,1
4971,14,2,565,1
4972,14,2,510,1
4973,14,2,632,1
4974,14,1,542,1
4975,14,2,512,1
4976,14,1,506,1
4977,14,2,886,1
4978,14,2,562,1
4979,14,2,618,1
4980,14,1,553,1
4981,14,1,482,1
4982,14,1,513,1
4983,14,1,540,1
4984,14,1,566,1
4985,14,2,661,1
4986,14,1,626,1
4987,14,1,624,1
4988,14,1,502,1
4989,14,1,482,1
4990,14,2,609,1
4991,14,2,687,1
5088,14,2,779,1
5089,14,1,595,1
5090,14,1,514,1
5091,14,2,620,1
5092,14,1,491,1
5093,14,2,474,1
5094,14,2,474,1
5095,14,1,466,1
5096,14,1,562,1
5097,14,2,475,1
5098,14,2,659,1
5099,14,2,472,0
5100,14,2,880,1
5101,14,1,332,1
5102,14,1,553,1
5103,14,2,699,1
5104,14,1,414,1
5105,14,1,712,1
5106,14,1,506,1
5107,14,2,614,1
5108,14,2,452,1
5109,14,1,557,1
5110,14,2,702,1
5111,14,2,465,1
5112,14,2,449,1
5113,14,1,522,1
5114,14,2,437,1
5115,14,1,509,1
5116,14,1,423,1
5117,14,2,593,1
5118,14,1,537,1
5119,14,1,491,1
5216,14,2,969,1
5217,14,1,506,1
5218,14,2,437,1
5219,14,2,631,1
5220,14,1,541,1
5221,14,1,542,1
5222,14,1,600,1
5223,14,2,528,1
5224,14,1,561,1
5225,14,1,618,1
5226,14,2,529,1
5227,14,1,522,1
5228,14,2,637,1
5229,14,1,499,1
5230,14,1,882,1
5231,14,2,566,1
5232,14,2,414,1
5233,14,2,648,1
5234,14,2,557,1
5235,14,2,455,1
5236,14,1,471,1
5237,14,2,615,1
5238,14,1,502,1
5239,14,2,521,1
5240,14,1,524,1
5241,14,2,501,1
5242,14,1,488,1
5243,14,2,632,1
5244,14,1,438,1
5245,14,1,479,1
5246,14,1,590,1
5247,14,2,550,1
5344,14,1,602,1
5345,14,2,441,1
5346,14,2,626,1
5347,14,2,560,1
5348,14,2,465,1
5349,14,2,449,1
5350,14,2,474,1
5351,14,1,866,1
5352,14,1,462,1
5353,14,2,510,1
5354,14,2,673,1
5355,14,1,469,1
5356,14,1,581,1
5357,14,1,525,1
5358,14,2,816,1
5359,14,1,614,1
5360,14,1,501,1
5361,14,1,576,1
5362,14,1,528,1
5363,14,1,546,1
5364,14,1,683,1
5365,14,2,647,1
5366,14,1,572,1
5367,14,2,589,1
5368,14,1,597,1
5369,14,2,1540,1
5370,14,1,477,1
5371,14,2,533,1
5372,14,2,422,1
5373,14,1,496,1
5374,14,2,431,1
5375,14,2,408,1
5504,15,2,918,1
5505,15,2,497,1
5506,15,1,520,1
5507,15,1,442,1
5508,15,2,444,0
5509,15,2,644,1
5510,15,2,506,1
5511,15,1,437,1
5512,15,2,510,1
5513,15,2,585,1
5514,15,1,441,1
5515,15,1,402,1
5516,15,2,565,1
5517,15,2,477,1
5518,15,1,428,1
5519,15,1,518,1
5520,15,2,512,1
5521,15,2,435,1
5522,15,1,452,1
5523,15,1,429,1
5524,15,2,486,1
5525,15,1,446,1
5526,15,1,374,1
5527,15,1,514,1
5528,15,2,541,1
5529,15,1,535,1
5530,15,1,568,1
5531,15,1,393,1
5532,15,2,348,1
5533,15,1,352,1
5534,15,2,397,0
5535,15,2,383,1
5632,15,1,570,1
5633,15,2,578,1
5634,15,2,362,1
5635,15,2,414,1
5636,15,2,504,1
5637,15,1,435,1
5638,15,1,461,1
5639,15,1,389,1
5640,15,1,392,1
5641,15,2,475,1
5642,15,2,347,1
5643,15,2,384,1
5644,15,1,371,1
5645,15,1,575,1
5646,15,2,352,1
5647,15,1,373,1
5648,15,2,361,1
5649,15,2,381,0
5650,15,1,456,1
5651,15,2,441,1
5652,15,1,362,1
5653,15,1,374,1
5654,15,2,346,1
5655,15,2,454,1
5656,15,2,383,1
5657,15,1,394,1
5658,15,1,437,1
5659,15,2,422,1
5660,15,1,416,1
5661,15,2,546,1
5662,15,1,444,1
5663,15,1,324,1
5760,15,1,553,1
5761,15,2,546,1
5762,15,2,499,1
5763,15,1,402,1
5764,15,1,365,1
5765,15,2,401,0
5766,15,1,435,1
5767,15,2,413,1
5768,15,2,583,1
5769,15,2,535,1
5770,15,2,448,1
5771,15,2,416,1
5772,15,1,442,1
5773,15,1,627,1
5774,15,1,1201,1
5775,15,2,553,1
5776,15,2,466,1
5777,15,2,498,1
5778,15,1,537,1
5779,15,2,547,1
5780,15,2,412,1
5781,15,1,414,1
5782,15,1,496,1
5783,15,1,407,1
5784,15,2,577,1
5785,15,1,393,1
5786,15,2,436,1
5787,15,1,437,1
5788,15,1,398,1
5789,15,1,425,1
5790,15,1,467,1
5791,15,2,539,0
5888,15,2,562,1
5889,15,2,578,1
5890,15,2,482,1
5891,15,2,386,1
5892,15,2,549,1
5893,15,1,366,1
5894,15,1,410,1
5895,15,2,452,1
5896,15,2,389,1
5897,15,1,424,1
5898,15,1,418,1
5899,15,2,452,1
5900,15,1,405,1
5901,15,1,351,1
5902,15,1,444,1
5903,15,2,349,0
5904,15,2,609,1
5905,15,1,513,1
5906,15,1,371,1
5907,15,2,407,1
5908,15,1,474,1
5909,15,1,394,1
5910,15,2,468,0
5911,15,2,492,1
5912,15,2,468,1
5913,15,2,452,1
5914,15,1,379,1
5915,15,2,471,1
5916,15,1,415,1
5917,15,1,361,1
5918,15,1,445,1
5919,15,1,325,1
6016,15,2,2154,1
6017,15,2,435,1
6018,15,2,517,1
6019,15,2,455,1
6020,15,1,456,1
6021,15,2,473,1
6022,15,1,425,1
6023,15,2,483,1
6024,15,1,370,1
6025,15,2,406,1
6026,15,1,505,1
6027,15,1,460,1
6028,15,2,660,1
6029,15,1,480,1
6030,15,2,408,1
6031,15,2,450,1
6032,15,1,435,0
6033,15,1,388,1
6034,15,1,352,1
6035,15,1,428,1
6036,15,2,574,1
6037,15,2,614,1
6038,15,2,589,1
6039,15,2,573,1
6040,15,1,429,1
6041,15,1,607,1
6042,15,2,510,1
6043,15,2,432,1
6044,15,1,418,1
6045,15,1,356,1
6046,15,1,472,1
6047,15,1,360,1
6144,15,1,518,1
6145,15,1,481,1
6146,15,2,480,1
6147,15,2,528,1
6148,15,1,394,1
6149,15,2,427,1
6150,15,2,429,1
6151,15,1,406,1
6152,15,2,433,1
6153,15,1,354,1
6154,15,1,495,1
6155,15,2,445,1
6156,15,2,534,1
6157,15,1,440,1
6158,15,1,385,1
6159,15,1,508,1
6160,15,1,576,0
6161,15,1,495,1
6162,15,2,470,1
6163,15,2,486,1
6164,15,1,374,1
6165,15,2,570,1
6166,15,1,410,1
6167,15,1,388,1
6168,15,2,471,1
6169,15,1,383,1
6170,15,2,419,1
6171,15,2,405,1
6172,15,2,455,1
6173,15,2,432,1
6174,15,1,433,1
6175,15,2,435,1
6464,16,1,469,1
6465,16,2,365,1
6466,16,1,369,1
6467,16,2,373,0
6468,16,1,481,1
6469,16,1,392,1
6470,16,1,404,1
6471,16,2,390,1
6472,16,1,369,1
6473,16,2,413,1
6474,16,1,367,1
6475,16,1,371,1
6476,16,2,351,1
6477,16,1,508,1
6478,16,2,447,1
6479,16,1,416,1
6480,16,1,466,1
6481,16,1,466,1
6482,16,2,338,1
6483,16,1,367,1
6484,16,2,475,1
6485,16,2,435,1
6486,16,2,333,1
6487,16,2,346,1
6488,16,2,327,0
6489,16,2,500,1
6490,16,1,371,1
6491,16,2,335,1
6492,16,1,284,1
6493,16,2,387,1
6494,16,2,390,1
6495,16,1,370,1
6592,16,2,595,1
6593,16,2,402,1
6594,16,2,413,1
6595,16,1,351,0
6596,16,2,363,1
6597,16,1,343,1
6598,16,1,396,1
6599,16,2,415,1
6600,16,2,345,1
6601,16,1,357,1
6602,16,1,378,1
6603,16,2,429,1
6604,16,1,375,1
6605,16,1,379,1
6606,16,1,342,1
6607,16,1,315,1
6608,16,1,449,1
6609,16,2,410,1
6610,16,2,444,1
6611,16,1,469,1
6612,16,1,341,1
6613,16,1,322,1
6614,16,2,424,1
6615,16,2,434,1
6616,16,2,467,1
6617,16,1,435,1
6618,16,2,460,1
6619,16,1,389,1
6620,16,1,368,1
6621,16,2,364,1
6622,16,2,408,1
6623,16,2,410,1
6720,16,2,401,1
6721,16,1,395,1
6722,16,2,390,1
6723,16,2,353,1
6724,16,1,358,1
6725,16,2,339,1
6726,16,1,328,1
6727,16,2,341,1
6728,16,1,307,1
6729,16,1,289,1
6730,16,2,352,0
6731,16,1,397,1
6732,16,1,464,1
6733,16,2,448,1
6734,16,2,360,1
6735,16,1,388,1
6736,16,1,264,0
6737,16,1,343,1
6738,16,2,419,1
6739,16,2,245,0
6740,16,1,406,1
6741,16,1,353,1
6742,16,1,293,1
6743,16,2,300,0
6744,16,1,330,1
6745,16,1,368,1
6746,16,2,284,1
6747,16,2,347,0
6748,16,2,256,1
6749,16,1,288,1
6750,16,2,488,1
6751,16,2,319,1
6848,16,1,387,1
6849,16,1,326,1
6850,16,1,356,1
6851,16,2,360,0
6852,16,1,308,1
6853,16,1,347,1
6854,16,2,344,1
6855,16,2,340,0
6856,16,2,418,1
6857,16,1,364,0
6858,16,2,360,1
6859,16,1,372,1
6860,16,1,504,1
6861,16,2,411,1
6862,16,1,325,1
6863,16,2,219,0
6864,16,2,349,1
6865,16,2,233,1
6866,16,2,347,1
6867,16,2,295,1
6868,16,1,390,1
6869,16,2,353,1
6870,16,1,438,1
6871,16,2,335,1
6872,16,1,228,0
6873,16,2,373,0
6874,16,1,409,1
6875,16,2,315,1
6876,16,1,329,1
6877,16,1,327,0
6878,16,2,340,1
6879,16,1,417,1
6976,16,2,637,1
6977,16,1,371,1
6978,16,1,327,1
6979,16,2,292,1
6980,16,2,235,1
6981,16,1,197,1
6982,16,2,231,0
6983,16,2,232,0
6984,16,2,418,1
6985,16,2,348,1
6986,16,1,280,1
6987,16,1,376,1
6988,16,2,308,1
6989,16,1,266,0
6990,16,2,410,1
6991,16,1,308,1
6992,16,2,379,0
6993,16,2,374,1
6994,16,1,418,1
6995,16,1,260,1
6996,16,1,300,1
6997,16,1,347,1
6998,16,2,439,1
6999,16,2,361,1
7000,16,2,221,0
7001,16,1,407,1
7002,16,1,345,0
7003,16,1,342,1
7004,16,2,235,1
7005,16,1,276,1
7006,16,2,380,1
7007,16,1,279,1
7104,16,2,328,1
7105,16,1,301,1
7106,16,2,220,0
7107,16,1,286,1
7108,16,2,237,0
7109,16,1,333,1
7110,16,2,339,1
7111,16,2,328,1
7112,16,1,317,1
7113,16,2,395,1
7114,16,1,334,1
7115,16,1,211,1
7116,16,1,293,1
7117,16,1,388,1
7118,16,1,647,1
7119,16,2,364,1
7120,16,2,240,0
7121,16,2,266,0
7122,16,2,322,1
7123,16,2,231,1
7124,16,2,329,1
7125,16,1,334,1
7126,16,1,235,0
7127,16,2,285,1
7128,16,2,348,1
7129,16,1,337,1
7130,16,1,326,1
7131,16,2,251,0
7132,16,2,388,1
7133,16,1,239,1
7134,16,1,256,0
7135,16,1,313,1
7328,17,2,500,0
7329,17,2,394,1
7330,17,2,413,1
7331,17,2,423,1
7332,17,1,329,1
7333,17,1,382,1
7334,17,1,386,1
7335,17,2,349,1
7336,17,2,402,1
7337,17,1,340,1
7338,17,1,418,1
7339,17,2,444,1
7340,17,1,372,1
7341,17,1,536,0
7342,17,1,394,1
7343,17,2,421,1
7344,17,1,479,0
7345,17,2,526,0
7346,17,2,401,0
7347,17,2,507,1
7348,17,1,391,1
7349,17,2,346,0
7350,17,2,542,1
7351,17,2,559,1
7352,17,2,336,0
7353,17,1,501,0
7354,17,1,360,1
7355,17,2,284,0
7356,17,1,308,1
7357,17,1,346,1
7358,17,1,319,1
7359,17,1,429,1
7456,17,1,396,1
7457,17,2,319,1
7458,17,2,341,0
7459,17,1,434,1
7460,17,2,323,1
7461,17,1,273,0
7462,17,2,393,1
7463,17,1,316,1
7464,17,1,346,1
7465,17,1,350,1
7466,17,2,291,1
7467,17,2,314,1
7468,17,2,312,0
7469,17,2,310,1
7470,17,2,348,1
7471,17,2,361,1
7472,17,2,405,1
7473,17,1,328,1
7474,17,1,381,1
7475,17,1,344,1
7476,17,2,397,0
7477,17,1,335,1
7478,17,2,517,1
7479,17,1,287,1
7480,17,1,311,1
7481,17,1,333,1
7482,17,2,306,0
7483,17,1,344,1
7484,17,1,333,1
7485,17,2,322,1
7486,17,2,360,1
7487,17,1,380,1
7584,17,2,570,1
7585,17,1,290,1
7586,17,2,362,0
7587,17,1,293,1
7588,17,2,324,1
7589,17,1,281,1
7590,17,2,256,0
7591,17,2,377,1
7592,17,1,324,1
7593,17,1,306,1
7594,17,1,345,1
7595,17,2,334,0
7596,17,1,371,0
7597,17,1,375,1
7598,17,2,459,1
7599,17,1,348,1
7600,17,1,320,1
7601,17,1,574,1
7602,17,2,463,1
7603,17,2,391,0
7604,17,2,394,1
7605,17,1,325,1
7606,17,2,451,1
7607,17,1,291,1
7608,17,1,307,1
7609,17,1,337,1
7610,17,2,327,0
7611,17,2,316,1
7612,17,2,354,1
7613,17,1,294,1
7614,17,2,293,0
7615,17,2,380,1
7712,17,1,418,1
7713,17,2,276,0
7714,17,2,308,0
7715,17,1,338,1
7716,17,1,335,1
7717,17,2,317,1
7718,17,1,243,1
7719,17,2,292,0
7720,17,2,299,0
7721,17,2,354,1
7722,17,1,407,0
7723,17,2,393,1
7724,17,2,284,0
7725,17,1,395,1
7726,17,1,294,1
7727,17,1,308,1
7728,17,1,307,1
7729,17,2,314,0
7730,17,2,408,1
7731,17,1,322,1
7732,17,2,352,0
7733,17,1,461,1
7734,17,1,365,1
7735,17,1,321,1
7736,17,2,399,1
7737,17,1,322,1
7738,17,1,383,1
7739,17,1,267,0
7740,17,2,291,1
7741,17,2,354,0
7742,17,2,383,1
7743,17,2,322,1
7840,17,2,361,1
7841,17,1,317,1
7842,17,2,323,0
7843,17,2,201,1
7844,17,2,403,1
7845,17,2,270,0
7846,17,2,334,1
7847,17,1,299,1
7848,17,1,386,1
7849,17,2,389,0
7850,17,1,223,0
7851,17,2,337,0
7852,17,1,439,1
7853,17,2,384,1
7854,17,2,427,1
7855,17,1,373,1
7856,17,2,329,1
7857,17,1,278,1
7858,17,1,413,0
7859,17,1,199,1
7860,17,1,218,0
7861,17,1,228,1
7862,17,2,261,0
7863,17,1,229,1
7864,17,1,294,1
7865,17,2,365,1
7866,17,1,281,1
7867,17,1,320,1
7868,17,2,206,0
7869,17,2,465,1
7870,17,1,265,1
7871,17,2,281,0
7968,17,1,356,1
7969,17,1,217,1
7970,17,2,227,1
7971,17,2,300,0
7972,17,2,299,0
7973,17,2,153,1
7974,17,2,182,0
7975,17,1,185,0
7976,17,1,189,0
7977,17,1,216,1
7978,17,1,194,0
7979,17,1,236,0
7980,17,1,286,0
7981,17,2,325,1
7982,17,1,323,1
7983,17,2,273,1
7984,17,2,385,0
7985,17,1,316,1
7986,17,2,298,0
7987,17,1,321,1
7988,17,1,327,1
7989,17,1,300,1
7990,17,2,387,1
7991,17,2,470,1
7992,17,2,198,0
7993,17,1,360,0
7994,17,1,308,1
7995,17,2,259,1
7996,17,1,260,1
7997,17,2,300,1
7998,17,2,370,1
7999,17,2,342,1
8288,18,2,512,1
8289,18,2,315,1
8290,18,1,337,1
8291,18,2,414,0
8292,18,2,400,1
8293,18,1,331,1
8294,18,1,312,1
8295,18,2,310,1
8296,18,2,308,0
8297,18,2,323,0
8298,18,1,329,1
8299,18,2,494,1
8300,18,2,301,0
8301,18,1,347,1
8302,18,2,424,1
8303,18,1,378,1
8304,18,2,333,0
8305,18,1,491,1
8306,18,1,442,1
8307,18,1,323,1
8308,18,2,361,1
8309,18,1,301,1
8310,18,1,308,1
8311,18,2,298,1
8312,18,1,337,1
8313,18,1,310,1
8314,18,2,340,1
8315,18,1,322,1
8316,18,1,400,1
8317,18,2,346,1
8318,18,1,295,1
8319,18,2,237,1
8416,18,1,445,1
8417,18,2,269,0
8418,18,2,493,1
8419,18,2,332,0
8420,18,2,465,1
8421,18,1,345,1
8422,18,1,342,1
8423,18,1,307,1
8424,18,1,338,0
8425,18,2,295,1
8426,18,1,302,0
8427,18,1,324,1
8428,18,2,818,1
8429,18,2,369,1
8430,18,1,405,1
8431,18,2,368,1
8432,18,2,348,1
8433,18,2,352,1
8434,18,2,325,0
8435,18,2,411,1
8436,18,2,324,0
8437,18,1,450,1
8438,18,1,306,1
8439,18,1,337,1
8440,18,1,382,1
8441,18,2,354,0
8442,18,2,398,1
8443,18,1,305,1
8444,18,1,328,1
8445,18,1,357,1
8446,18,2,362,0
8447,18,1,326,1
8544,18,1,313,1
8545,18,1,287,1
8546,18,2,382,1
8547,18,2,370,1
8548,18,1,326,1
8549,18,2,348,1
8550,18,2,343,0
8551,18,1,333,1
8552,18,2,217,1
8553,18,2,259,1
8554,18,1,331,1
8555,18,2,328,0
8556,18,1,254,1
8557,18,1,254,0
8558,18,1,351,0
8559,18,2,371,1
8560,18,2,471,1
8561,18,1,423,1
8562,18,2,305,0
8563,18,2,456,1
8564,18,1,321,1
8565,18,2,287,1
8566,18,1,334,1
8567,18,2,595,1
8568,18,1,307,1
8569,18,1,289,0
8570,18,1,312,1
8571,18,1,326,1
8572,18,2,332,1
8573,18,1,265,1
8574,18,2,265,0
8575,18,2,297,0
8672,18,1,382,1
8673,18,1,354,1
8674,18,1,318,1
8675,18,2,236,0
8676,18,1,318,1
8677,18,2,283,0
8678,18,2,459,1
8679,18,2,339,1
8680,18,1,329,1
8681,18,2,310,1
8682,18,1,444,1
8683,18,1,357,1
8684,18,2,329,0
8685,18,2,423,1
8686,18,1,337,1
8687,18,1,318,1
8688,18,2,276,0
8689,18,1,260,1
8690,18,2,428,1
8691,18,1,333,1
8692,18,2,338,0
8693,18,1,312,1
8694,18,2,342,0
8695,18,2,579,1
8696,18,1,323,1
8697,18,1,297,1
8698,18,1,391,1
8699,18,2,387,1
8700,18,1,278,1
8701,18,2,341,1
8702,18,2,339,1
8703,18,2,400,1
8800,18,1,381,1
8801,18,2,408,1
8802,18,2,379,1
8803,18,2,302,1
8804,18,1,325,1
8805,18,2,315,1
8806,18,2,265,1
8807,18,1,281,1
8808,18,1,328,1
8809,18,1,269,1
8810,18,1,301,0
8811,18,1,316,0
8812,18,1,402,1
8813,18,2,364,1
8814,18,2,328,0
8815,18,1,390,1
8816,18,2,408,1
8817,18,1,323,1
8818,18,1,345,1
8819,18,2,373,1
8820,18,2,369,1
8821,18,1,325,1
8822,18,1,275,1
8823,18,1,323,1
8824,18,2,713,1
8825,18,2,284,0
8826,18,2,323,0
8827,18,2,401,1
8828,18,2,348,1
8829,18,2,680,1
8830,18,1,316,1
8831,18,1,330,0
8928,18,2,321,1
8929,18,1,318,1
8930,18,2,236,0
8931,18,1,341,0
8932,18,2,386,1
8933,18,1,326,1
8934,18,2,403,0
8935,18,1,382,1
8936,18,1,353,1
8937,18,2,326,0
8938,18,1,387,1
8939,18,2,367,1
8940,18,2,331,1
8941,18,1,400,1
8942,18,1,299,1
8943,18,1,369,1
8944,18,1,325,1
8945,18,1,323,1
8946,18,2,409,0
8947,18,2,371,1
8948,18,2,311,1
8949,18,1,269,1
8950,18,1,277,0
8951,18,1,228,1
8952,18,2,358,1
8953,18,1,306,1
8954,18,1,361,1
8955,18,2,525,1
8956,18,2,375,1
8957,18,2,307,1
8958,18,2,370,1
8959,18,2,366,0
9088,19,1,331,1
9089,19,1,344,1
9090,19,2,333,0
9091,19,2,354,1
9092,19,2,343,1
9093,19,2,299,1
9094,19,1,306,1
9095,19,1,353,1
9096,19,1,389,1
9097,19,2,265,1
9098,19,2,321,1
9099,19,2,310,0
9100,19,1,292,1
9101,19,1,307,1
9102,19,1,306,1
9103,19,1,296,1
9104,19,1,271,0
9105,19,2,319,0
9106,19,2,437,0
9107,19,2,726,1
9108,19,2,416,1
9109,19,2,386,0
9110,19,1,309,1
9111,19,2,363,0
9112,19,2,367,1
9113,19,1,379,1
9114,19,1,335,1
9115,19,1,532,0
9116,19,1,334,1
9117,19,1,275,1
9118,19,2,275,0
9119,19,2,355,1
9216,19,1,397,1
9217,19,1,327,1
9218,19,2,413,1
9219,19,2,367,1
9220,19,1,275,1
9221,19,2,291,1
9222,19,2,442,1
9223,19,2,379,0
9224,19,1,326,1
9225,19,1,340,1
9226,19,2,353,1
9227,19,2,398,1
9228,19,2,368,1
9229,19,1,364,1
9230,19,2,352,0
9231,19,1,421,1
9232,19,1,327,1
9233,19,2,364,0
9234,19,1,328,0
9235,19,2,318,0
9236,19,2,340,1
9237,19,1,353,1
9238,19,1,493,1
9239,19,1,316,1
9240,19,1,346,1
9241,19,2,327,1
9242,19,1,268,1
9243,19,1,396,1
9244,19,2,359,1
9245,19,2,419,1
9246,19,2,341,1
9247,19,1,323,1
9344,19,1,334,1
9345,19,1,291,1
9346,19,2,298,0
9347,19,2,281,0
9348,19,2,304,1
9349,19,2,319,0
9350,19,2,301,1
9351,19,2,284,0
9352,19,2,283,1
9353,19,2,290,1
9354,19,1,337,0
9355,19,2,279,1
9356,19,1,294,1
9357,19,1,309,1
9358,19,2,291,0
9359,19,1,338,0
9360,19,1,352,1
9361,19,2,380,0
9362,19,1,280,1
9363,19,1,335,1
9364,19,1,356,1
9365,19,2,265,0
9366,19,2,305,0
9367,19,1,384,0
9368,19,1,379,1
9369,19,2,469,1
9370,19,1,333,1
9371,19,1,339,1
9372,19,1,488,1
9373,19,2,279,1
9374,19,2,318,1
9375,19,1,324,1
9472,19,1,373,1
9473,19,1,369,1
9474,19,1,413,1
9475,19,2,487,1
9476,19,2,246,0
9477,19,1,286,1
9478,19,1,413,1
9479,19,1,335,1
9480,19,2,492,1
9481,19,2,331,0
9482,19,2,305,0
9483,19,1,351,1
9484,19,2,324,0
9485,19,1,346,1
9486,19,1,359,1
9487,19,1,371,1
9488,19,2,295,1
9489,19,2,374,1
9490,19,2,466,1
9491,19,2,298,0
9492,19,2,344,1
9493,19,1,533,1
9494,19,2,383,1
9495,19,1,274,1
9496,19,1,258,1
9497,19,2,315,0
9498,19,1,273,0
9499,19,1,321,1
9500,19,2,319,0
9501,19,2,357,1
9502,19,2,345,1
9503,19,1,326,1
9600,19,2,330,1
9601,19,1,320,1
9602,19,1,310,1
9603,19,2,236,1
9604,19,2,277,1
9605,19,1,332,0
9606,19,2,441,0
9607,19,2,427,1
9608,19,1,404,1
9609,19,1,335,1
9610,19,2,316,1
9611,19,1,266,1
9612,19,2,266,0
9613,19,2,434,1
9614,19,2,259,1
9615,19,1,292,1
9616,19,1,323,1
9617,19,2,273,0
9618,19,1,321,1
9619,19,2,191,0
9620,19,1,298,1
9621,19,1,273,1
9622,19,2,273,1
9623,19,1,329,0
9624,19,1,318,1
9625,19,2,284,0
9626,19,1,275,1
9627,19,1,347,1
9628,19,1,352,1
9629,19,2,317,0
9630,19,2,331,0
9631,19,2,280,1
9728,19,1,288,1
9729,19,1,303,1
9730,19,2,198,1
9731,19,2,312,1
9732,19,1,326,1
9733,19,2,260,1
9734,19,1,268,1
9735,19,2,204,1
9736,19,1,230,0
9737,19,1,279,1
9738,19,1,279,1
9739,19,1,742,1
9740,19,1,376,1
9741,19,2,332,0
9742,19,2,313,0
9743,19,1,295,1
9744,19,2,294,1
9745,19,1,164,1
9746,19,2,288,0
9747,19,1,344,1
9748,19,2,292,0
9749,19,2,244,0
9750,19,2,292,1
9751,19,2,339,1
9752,19,2,345,0
9753,19,2,277,1
9754,19,2,293,0
9755,19,1,276,1
9756,19,1,380,0
9757,19,2,263,0
9758,19,1,407,1
9759,19,1,322,0
10080,2,2,350,1
10081,2,1,314,1
10082,2,2,288,0
10083,2,2,327,0
10084,2,1,357,1
10085,2,1,337,1
10086,2,2,367,1
10087,2,2,363,1
10088,2,1,327,1
10089,2,1,308,1
10090,2,2,435,1
10091,2,2,364,0
10092,2,2,424,0
10093,2,2,370,1
10094,2,1,342,1
10095,2,2,419,1
10096,2,1,357,1
10097,2,1,338,1
10098,2,1,359,1
10099,2,1,356,1
10100,2,2,329,1
10101,2,1,358,1
10102,2,2,338,0
10103,2,2,376,1
10104,2,1,364,1
10105,2,2,344,1
10106,2,1,356,0
10107,2,2,441,1
10108,2,1,338,1
10109,2,2,440,1
10110,2,1,321,1
10111,2,1,295,1
10208,2,1,440,1
10209,2,2,361,1
10210,2,2,381,1
10211,2,1,312,1
10212,2,1,302,1
10213,2,1,333,1
10214,2,1,314,1
10215,2,1,328,1
10216,2,1,389,1
10217,2,2,449,1
10218,2,2,425,1
10219,2,1,315,1
10220,2,2,321,1
10221,2,1,319,1
10222,2,2,333,1
10223,2,1,315,1
10224,2,1,337,1
10225,2,1,326,1
10226,2,2,364,1
10227,2,2,312,1
10228,2,2,278,0
10229,2,1,333,1
10230,2,2,314,0
10231,2,2,336,1
10232,2,1,366,1
10233,2,2,378,1
10234,2,2,421,1
10235,2,1,335,1
10236,2,2,324,0
10237,2,2,362,1
10238,2,1,350,1
10239,2,2,355,1
10336,2,1,348,1
10337,2,2,321,1
10338,2,1,375,1
10339,2,2,315,0
10340,2,2,385,1
10341,2,1,316,1
10342,2,1,330,1
10343,2,1,407,1
10344,2,1,290,1
10345,2,1,313,1
10346,2,1,327,1
10347,2,2,324,0
10348,2,2,386,1
10349,2,2,502,1
10350,2,1,369,1
10351,2,2,293,1
10352,2,1,316,1
10353,2,1,314,1
10354,2,1,352,1
10355,2,2,245,0
10356,2,2,349,1
10357,2,2,314,0
10358,2,2,320,1
10359,2,1,293,1
10360,2,2,356,0
10361,2,2,424,1
10362,2,1,378,1
10363,2,1,310,1
10364,2,1,331,1
10365,2,2,329,0
10366,2,2,350,1
10367,2,2,323,1
10464,2,1,299,1
10465,2,2,313,0
10466,2,2,319,1
10467,2,1,357,1
10468,2,1,330,1
10469,2,2,351,1
10470,2,1,316,1
10471,2,2,322,0
10472,2,2,384,1
10473,2,1,339,1
10474,2,2,417,1
10475,2,2,315,0
10476,2,2,480,1
10477,2,2,320,0
10478,2,2,318,1
10479,2,1,324,1
10480,2,1,290,1
10481,2,1,345,1
10482,2,1,334,1
10483,2,2,331,1
10484,2,2,384,1
10485,2,1,276,1
10486,2,2,252,0
10487,2,1,372,1
10488,2,1,320,1
10489,2,1,310,1
10490,2,2,324,0
10491,2,2,346,0
10492,2,2,399,1
10493,2,1,337,1
10494,2,1,311,1
10495,2,1,333,1
10592,2,1,387,1
10593,2,2,374,1
10594,2,2,306,0
10595,2,2,345,1
10596,2,1,277,0
10597,2,2,277,0
10598,2,1,340,1
10599,2,1,321,1
10600,2,2,367,1
10601,2,2,307,1
10602,2,2,330,0
10603,2,1,335,1
10604,2,1,372,1
10605,2,2,376,1
10606,2,1,324,1
10607,2,2,346,0
10608,2,1,366,1
10609,2,2,330,0
10610,2,1,304,1
10611,2,1,278,1
10612,2,2,422,1
10613,2,1,752,1
10614,2,1,297,1
10615,2,2,400,1
10616,2,1,330,1
10617,2,2,392,1
10618,2,1,338,1
10619,2,2,375,0
10620,2,2,267,0
10621,2,1,402,1
10622,2,1,373,1
10623,2,2,377,1
10720,2,1,454,1
10721,2,1,327,1
10722,2,1,308,1
10723,2,2,435,1
10724,2,2,340,1
10725,2,2,330,1
10726,2,1,311,1
10727,2,2,309,1
10728,2,2,516,1
10729,2,2,374,1
10730,2,2,290,0
10731,2,2,337,0
10732,2,1,335,1
10733,2,1,292,1
10734,2,1,451,1
10735,2,1,340,1
10736,2,1,361,1
10737,2,2,341,1
10738,2,1,346,1
10739,2,1,334,1
10740,2,2,348,0
10741,2,2,520,1
10742,2,1,363,1
10743,2,2,367,1
10744,2,2,299,0
10745,2,1,369,1
10746,2,2,341,1
10747,2,1,355,1
10748,2,1,327,1
10749,2,2,333,0
10750,2,2,314,1
10751,2,1,368,1
10944,20,2,559,1
10945,20,2,392,1
10946,20,2,427,1
10947,20,2,437,0
10948,20,2,382,1
10949,20,1,353,1
10950,20,1,438,1
10951,20,1,431,1
10952,20,2,465,1
10953,20,2,489,1
10954,20,2,480,1
10955,20,1,423,1
10956,20,1,409,1
10957,20,1,372,1
10958,20,1,360,1
10959,20,2,388,1
10960,20,1,423,1
10961,20,1,329,1
10962,20,1,367,1
10963,20,2,459,0
10964,20,2,426,1
10965,20,1,364,1
10966,20,2,400,1
10967,20,1,314,1
10968,20,1,336,1
10969,20,2,438,1
10970,20,2,351,1
10971,20,2,396,1
10972,20,1,326,1
10973,20,1,435,1
10974,20,1,445,1
10975,20,2,613,1
11072,20,2,442,1
11073,20,1,347,1
11074,20,2,432,1
11075,20,2,329,1
11076,20,2,374,1
11077,20,1,298,1
11078,20,1,313,1
11079,20,2,391,1
11080,20,1,346,1
11081,20,2,415,1
11082,20,2,361,1
11083,20,2,413,1
11084,20,1,351,1
11085,20,2,372,1
11086,20,1,368,1
11087,20,1,355,1
11088,20,2,336,1
11089,20,1,437,1
11090,20,1,359,1
11091,20,1,339,1
11092,20,1,345,1
11093,20,2,413,1
11094,20,2,447,1
11095,20,1,352,1
11096,20,1,413,1
11097,20,1,383,1
11098,20,1,482,1
11099,20,2,385,1
11100,20,2,445,1
11101,20,2,349,1
11102,20,1,314,1
11103,20,2,424,1
11200,20,2,621,1
11201,20,2,428,0
11202,20,2,469,1
11203,20,1,341,1
11204,20,2,394,1
11205,20,1,325,1
11206,20,1,363,1
11207,20,2,319,0
11208,20,1,405,1
11209,20,2,399,1
11210,20,2,362,1
11211,20,1,430,1
11212,20,1,415,1
11213,20,2,449,1
11214,20,2,490,1
11215,20,1,361,1
11216,20,1,405,1
11217,20,1,384,1
11218,20,2,427,1
11219,20,2,373,1
11220,20,1,377,1
11221,20,2,380,0
11222,20,1,415,1
11223,20,2,425,1
11224,20,1,323,1
11225,20,2,425,0
11226,20,1,427,1
11227,20,2,357,1
11228,20,1,345,1
11229,20,1,350,1
11230,20,1,546,1
11231,20,2,468,0
11328,20,1,397,0
11329,20,2,391,0
11330,20,1,459,1
11331,20,2,371,1
11332,20,1,391,1
11333,20,1,427,1
11334,20,2,492,1
11335,20,1,435,1
11336,20,2,413,1
11337,20,1,391,1
11338,20,1,370,1
11339,20,1,334,1
11340,20,1,315,1
11341,20,2,393,1
11342,20,2,396,0
11343,20,2,391,1
11344,20,2,433,1
11345,20,1,338,1
11346,20,2,367,1
11347,20,1,347,1
11348,20,2,384,1
11349,20,2,411,1
11350,20,1,357,1
11351,20,2,354,1
11352,20,1,327,1
11353,20,2,372,1
11354,20,1,352,1
11355,20,1,421,1
11356,20,2,319,1
11357,20,2,397,1
11358,20,2,447,1
11359,20,1,448,1
11456,20,1,457,1
11457,20,1,369,1
11458,20,1,364,1
11459,20,2,400,1
11460,20,2,491,1
11461,20,2,354,1
11462,20,2,399,1
11463,20,2,370,1
11464,20,1,326,1
11465,20,2,339,0
11466,20,2,504,1
11467,20,2,427,1
11468,20,1,333,1
11469,20,2,370,0
11470,20,1,382,1
11471,20,2,417,1
11472,20,2,371,1
11473,20,1,399,1
11474,20,2,370,1
11475,20,1,366,1
11476,20,1,386,1
11477,20,1,373,1
11478,20,1,345,1
11479,20,2,398,0
11480,20,1,433,1
11481,20,2,538,1
11482,20,1,372,1
11483,20,2,352,1
11484,20,1,436,1
11485,20,1,390,1
11486,20,2,369,1
11487,20,1,445,1
11584,20,1,356,1
11585,20,1,345,1
11586,20,2,381,1
11587,20,1,449,1
11588,20,2,353,1
11589,20,1,334,1
11590,20,2,363,0
11591,20,1,479,1
11592,20,1,350,1
11593,20,2,491,1
11594,20,1,378,1
11595,20,1,406,0
11596,20,1,416,1
11597,20,2,394,1
11598,20,2,501,1
11599,20,1,432,1
11600,20,2,402,1
11601,20,2,396,1
11602,20,2,407,1
11603,20,2,506,1
11604,20,1,349,1
11605,20,2,353,1
11606,20,1,350,1
11607,20,2,315,1
11608,20,1,441,1
11609,20,2,322,0
11610,20,2,352,1
11611,20,2,373,0
11612,20,1,417,1
11613,20,1,355,1
11614,20,2,343,1
11615,20,1,404,1
11808,21,2,632,1
11809,21,2,470,1
11810,21,1,558,1
11811,21,2,423,1
11812,21,2,473,1
11813,21,1,401,1
11814,21,2,356,1
11815,21,1,376,1
11816,21,1,372,1
11817,21,1,456,1
11818,21,2,344,1
11819,21,2,429,1
11820,21,2,374,1
11821,21,1,450,1
11822,21,1,371,1
11823,21,2,487,0
11824,21,2,566,0
11825,21,1,423,1
11826,21,1,473,1
11827,21,2,465,1
11828,21,2,385,1
11829,21,1,588,1
11830,21,1,540,1
11831,21,1,454,1
11832,21,2,431,1
11833,21,1,312,1
11834,21,2,398,1
11835,21,2,224,0
11836,21,1,522,1
11837,21,1,501,1
11838,21,1,416,1
11839,21,2,450,1
11936,21,1,632,1
11937,21,1,421,1
11938,21,2,399,1
11939,21,2,522,1
11940,21,2,613,1
11941,21,1,371,1
11942,21,2,455,1
11943,21,2,344,1
11944,21,1,413,1
11945,21,1,383,1
11946,21,2,458,1
11947,21,2,371,1
11948,21,1,287,1
11949,21,1,390,1
11950,21,2,409,1
11951,21,2,404,1
11952,21,1,342,1
11953,21,1,412,1
11954,21,2,462,1
11955,21,1,630,1
11956,21,1,420,1
11957,21,1,382,1
11958,21,2,345,1
11959,21,1,398,1
11960,21,1,360,1
11961,21,2,468,1
11962,21,2,388,1
11963,21,2,416,1
11964,21,1,330,1
11965,21,2,367,1
11966,21,2,515,1
11967,21,1,525,1
12064,21,2,950,1
12065,21,2,551,1
12066,21,1,512,1
12067,21,1,411,1
12068,21,2,469,1
12069,21,2,405,1
12070,21,2,359,1
12071,21,2,428,1
12072,21,2,389,1
12073,21,1,385,1
12074,21,2,444,1
12075,21,1,389,1
12076,21,1,640,0
12077,21,1,622,0
12078,21,1,515,1
12079,21,2,438,1
12080,21,1,415,0
12081,21,2,705,1
12082,21,1,477,1
12083,21,1,420,1
12084,21,1,390,1
12085,21,2,401,1
12086,21,2,428,1
12087,21,1,405,1
12088,21,1,456,1
12089,21,1,313,1
12090,21,2,550,1
12091,21,2,496,1
12092,21,1,366,1
12093,21,2,338,1
12094,21,2,400,1
12095,21,1,242,0
12192,21,1,477,1
12193,21,1,365,1
12194,21,1,393,1
12195,21,2,451,1
12196,21,2,444,1
12197,21,2,421,1
12198,21,1,503,1
12199,21,1,426,1
12200,21,2,468,1
12201,21,2,300,0
12202,21,1,474,1
12203,21,2,410,1
12204,21,2,412,1
12205,21,1,398,1
12206,21,1,385,1
12207,21,1,356,1
12208,21,2,457,1
12209,21,2,370,1
12210,21,2,462,1
12211,21,2,334,1
12212,21,2,403,1
12213,21,1,366,1
12214,21,1,386,1
12215,21,1,317,1
12216,21,2,411,1
12217,21,1,357,1
12218,21,1,370,1
12219,21,1,366,1
12220,21,2,394,1
12221,21,2,428,0
12222,21,2,566,1
12223,21,1,558,0
12320,21,2,525,1
12321,21,1,407,1
12322,21,1,322,1
12323,21,1,344,1
12324,21,2,437,1
12325,21,1,341,1
12326,21,1,331,1
12327,21,2,385,1
12328,21,2,284,1
12329,21,2,466,1
12330,21,2,370,1
12331,21,1,390,1
12332,21,2,321,1
12333,21,1,391,1
12334,21,2,355,1
12335,21,2,343,1
12336,21,2,396,1
12337,21,1,375,1
12338,21,1,323,1
12339,21,1,433,1
12340,21,2,346,1
12341,21,2,367,1
12342,21,2,379,0
12343,21,1,646,1
12344,21,1,363,1
12345,21,2,391,1
12346,21,1,402,1
12347,21,1,341,1
12348,21,1,418,1
12349,21,2,444,1
12350,21,1,461,0
12351,21,2,517,1
12448,21,1,486,1
12449,21,1,381,1
12450,21,1,488,1
12451,21,1,400,1
12452,21,2,490,1
12453,21,1,418,1
12454,21,2,332,1
12455,21,2,489,1
12456,21,2,368,1
12457,21,2,524,0
12458,21,2,599,1
12459,21,2,510,1
12460,21,1,433,1
12461,21,2,402,1
12462,21,1,428,1
12463,21,1,374,1
12464,21,2,362,1
12465,21,1,374,1
12466,21,2,458,1
12467,21,1,378,1
12468,21,1,350,1
12469,21,2,378,1
12470,21,2,558,0
12471,21,2,519,1
12472,21,1,369,1
12473,21,2,405,1
12474,21,2,368,1
12475,21,1,348,1
12476,21,1,393,1
12477,21,1,292,1
12478,21,2,339,1
12479,21,1,329,1
12768,22,2,465,1
12769,22,2,393,1
12770,22,2,500,1
12771,22,1,395,1
12772,22,1,317,1
12773,22,2,331,0
12774,22,2,313,1
12775,22,2,318,0
12776,22,2,404,1
12777,22,2,383,1
12778,22,2,378,1
12779,22,1,406,1
12780,22,1,296,1
12781,22,2,439,0
12782,22,1,304,1
12783,22,2,311,0
12784,22,2,501,0
12785,22,1,480,1
12786,22,2,415,1
12787,22,1,329,0
12788,22,1,438,1
12789,22,1,303,1
12790,22,2,494,1
12791,22,2,316,1
12792,22,1,322,1
12793,22,1,304,1
12794,22,1,359,0
12795,22,1,468,1
12796,22,1,420,1
12797,22,1,342,1
12798,22,2,339,0
12799,22,1,472,1
12896,22,2,813,1
12897,22,2,380,0
12898,22,2,343,0
12899,22,1,395,1
12900,22,1,358,1
12901,22,2,403,0
12902,22,1,429,1
12903,22,1,311,1
12904,22,1,373,1
12905,22,1,305,1
12906,22,1,327,1
12907,22,1,453,1
12908,22,1,325,1
12909,22,1,307,1
12910,22,2,402,1
12911,22,1,285,0
12912,22,2,420,0
12913,22,2,390,1
12914,22,1,385,0
12915,22,1,348,1
12916,22,2,369,1
12917,22,1,381,1
12918,22,2,384,1
12919,22,1,332,0
12920,22,2,345,0
12921,22,2,518,1
12922,22,2,432,1
12923,22,2,290,1
12924,22,1,401,1
12925,22,2,339,0
12926,22,2,361,1
12927,22,2,341,0
13024,22,1,479,1
13025,22,1,366,1
13026,22,2,354,0
13027,22,2,663,1
13028,22,1,371,1
13029,22,2,327,1
13030,22,2,309,1
13031,22,1,339,1
13032,22,2,304,0
13033,22,1,303,1
13034,22,1,334,1
13035,22,1,307,1
13036,22,2,306,1
13037,22,2,368,1
13038,22,1,356,1
13039,22,1,353,1
13040,22,2,390,0
13041,22,1,473,1
13042,22,1,497,1
13043,22,1,328,1
13044,22,1,333,1
13045,22,2,322,1
13046,22,1,328,0
13047,22,1,469,1
13048,22,2,453,1
13049,22,2,294,0
13050,22,2,389,1
13051,22,1,352,1
13052,22,2,309,0
13053,22,2,483,1
13054,22,2,395,1
13055,22,2,493,1
13152,22,1,424,1
13153,22,2,378,1
13154,22,2,445,0
13155,22,2,470,1
13156,22,1,374,1
13157,22,2,442,1
13158,22,2,379,0
13159,22,1,542,0
13160,22,2,392,1
13161,22,2,332,0
13162,22,1,425,1
13163,22,1,403,1
13164,22,1,326,1
13165,22,1,372,1
13166,22,1,328,1
13167,22,1,381,1
13168,22,1,488,1
13169,22,2,272,0
13170,22,2,406,1
13171,22,2,337,1
13172,22,2,366,1
13173,22,1,386,1
13174,22,2,310,1
13175,22,1,300,1
13176,22,1,274,1
13177,22,2,386,0
13178,22,1,590,1
13179,22,1,389,1
13180,22,1,321,1
13181,22,2,359,0
13182,22,2,299,0
13183,22,2,466,1
13280,22,1,406,1
13281,22,1,296,1
13282,22,1,343,1
13283,22,1,380,1
13284,22,1,287,1
13285,22,2,398,1
13286,22,1,273,1
13287,22,2,257,1
13288,22,1,377,1
13289,22,2,309,1
13290,22,1,403,1
13291,22,2,350,0
13292,22,2,427,1
13293,22,1,388,1
13294,22,1,311,1
13295,22,2,301,0
13296,22,1,372,1
13297,22,2,272,0
13298,22,1,360,1
13299,22,2,284,0
13300,22,2,331,1
13301,22,2,280,0
13302,22,1,400,1
13303,22,1,394,1
13304,22,2,277,0
13305,22,1,388,1
13306,22,2,344,0
13307,22,2,356,0
13308,22,2,369,1
13309,22,2,325,0
13310,22,2,251,0
13311,22,1,419,1
13408,22,2,487,0
13409,22,1,422,1
13410,22,2,352,1
13411,22,1,397,0
13412,22,1,384,1
13413,22,1,347,1
13414,22,1,352,1
13415,22,2,380,1
13416,22,1,312,1
13417,22,1,309,1
13418,22,2,347,0
13419,22,2,336,0
13420,22,2,357,0
13421,22,1,386,1
13422,22,1,389,1
13423,22,1,329,1
13424,22,2,390,0
13425,22,1,449,1
13426,22,1,306,1
13427,22,2,393,1
13428,22,1,372,1
13429,22,2,616,1
13430,22,2,502,1
13431,22,2,394,1
13432,22,1,436,1
13433,22,2,310,1
13434,22,2,444,1
13435,22,1,333,1
13436,22,2,410,1
13437,22,2,348,1
13438,22,1,345,1
13439,22,2,382,1
13568,23,2,809,1
13569,23,2,376,1
13570,23,2,548,1
13571,23,1,429,1
13572,23,2,446,1
13573,23,1,415,1
13574,23,1,289,1
13575,23,1,360,1
13576,23,1,348,1
13577,23,2,337,1
13578,23,2,374,0
13579,23,1,361,0
13580,23,1,341,1
13581,23,2,379,0
13582,23,1,366,0
13583,23,2,490,1
13584,23,2,289,0
13585,23,2,345,1
13586,23,2,349,1
13587,23,2,386,0
13588,23,1,349,1
13589,23,1,378,1
13590,23,2,445,1
13591,23,2,366,1
13592,23,1,298,1
13593,23,1,312,1
13594,23,2,254,1
13595,23,1,263,1
13596,23,1,447,1
13597,23,1,288,1
13598,23,1,311,1
13599,23,2,221,1
13696,23,1,382,1
13697,23,1,370,1
13698,23,2,326,1
13699,23,2,355,1
13700,23,2,320,1
13701,23,1,286,1
13702,23,1,269,0
13703,23,2,357,0
13704,23,1,369,1
13705,23,1,341,1
13706,23,2,291,1
13707,23,1,274,1
13708,23,2,378,1
13709,23,2,341,1
13710,23,2,355,0
13711,23,1,375,1
13712,23,1,283,1
13713,23,2,410,1
13714,23,1,348,1
13715,23,2,289,0
13716,23,1,336,1
13717,23,1,486,1
13718,23,1,341,1
13719,23,2,442,1
13720,23,2,372,1
13721,23,2,368,1
13722,23,2,404,1
13723,23,1,390,0
13724,23,1,482,1
13725,23,2,465,1
13726,23,2,449,1
13727,23,1,346,1
13824,23,2,622,1
13825,23,2,396,1
13826,23,2,311,0
13827,23,2,229,0
13828,23,1,518,1
13829,23,1,385,1
13830,23,1,396,1
13831,23,1,327,1
13832,23,1,268,0
13833,23,2,324,0
13834,23,1,426,0
13835,23,1,356,1
13836,23,1,377,1
13837,23,1,468,0
13838,23,2,476,1
13839,23,2,356,0
13840,23,1,472,1
13841,23,2,425,0
13842,23,1,531,1
13843,23,2,516,1
13844,23,2,463,1
13845,23,1,295,1
13846,23,2,454,1
13847,23,2,430,1
13848,23,1,320,1
13849,23,2,334,1
13850,23,1,443,0
13851,23,1,364,1
13852,23,2,304,0
13853,23,1,367,1
13854,23,2,379,0
13855,23,2,446,0
13952,23,1,548,1
13953,23,1,341,1
13954,23,2,338,0
13955,23,1,279,1
13956,23,1,359,1
13957,23,2,299,0
13958,23,1,290,1
13959,23,2,353,0
13960,23,2,342,1
13961,23,2,363,0
13962,23,2,383,0
13963,23,1,411,1
13964,23,2,309,1
13965,23,1,378,1
13966,23,2,381,0
13967,23,2,361,1
13968,23,1,389,1
13969,23,2,392,1
13970,23,1,379,1
13971,23,1,375,1
13972,23,1,387,1
13973,23,2,398,0
13974,23,1,385,1
13975,23,2,436,0
13976,23,1,405,0
13977,23,1,360,1
13978,23,2,428,1
13979,23,1,357,1
13980,23,1,338,1
13981,23,2,327,1
13982,23,2,373,1
13983,23,2,401,0
14080,23,1,438,1
14081,23,1,295,0
14082,23,2,422,0
14083,23,2,464,1
14084,23,2,528,1
14085,23,2,378,1
14086,23,2,405,1
14087,23,1,320,1
14088,23,2,294,0
14089,23,1,324,1
14090,23,1,578,1
14091,23,1,386,1
14092,23,2,373,1
14093,23,1,361,1
14094,23,2,285,0
14095,23,2,381,0
14096,23,1,392,0
14097,23,2,531,1
14098,23,1,2061,1
14099,23,1,346,1
14100,23,1,351,1
14101,23,1,436,1
14102,23,2,421,1
14103,23,1,327,1
14104,23,1,332,1
14105,23,2,305,0
14106,23,1,432,1
14107,23,2,457,1
14108,23,1,346,1
14109,23,2,383,1
14110,23,2,354,1
14111,23,2,383,1
14208,23,1,325,1
14209,23,1,371,1
14210,23,2,367,0
14211,23,1,315,1
14212,23,2,433,1
14213,23,2,243,0
14214,23,1,332,1
14215,23,1,385,1
14216,23,1,309,1
14217,23,2,347,1
14218,23,2,368,0
14219,23,1,364,1
14220,23,1,336,1
14221,23,2,549,1
14222,23,2,462,1
14223,23,1,310,1
14224,23,2,364,1
14225,23,1,368,1
14226,23,2,396,1
14227,23,2,511,1
14228,23,2,569,1
14229,23,1,370,1
14230,23,2,478,1
14231,23,2,461,1
14232,23,1,333,1
14233,23,1,387,1
14234,23,2,462,0
14235,23,1,454,1
14236,23,1,431,1
14237,23,2,272,0
14238,23,2,376,0
14239,23,1,396,1
14528,24,2,486,1
14529,24,1,397,1
14530,24,2,376,0
14531,24,1,396,1
14532,24,2,366,1
14533,24,2,482,1
14534,24,2,409,1
14535,24,1,468,1
14536,24,2,316,1
14537,24,1,386,1
14538,24,1,413,1
14539,24,2,439,1
14540,24,1,344,1
14541,24,1,413,1
14542,24,1,367,1
14543,24,1,563,1
14544,24,2,395,1
14545,24,1,278,0
14546,24,2,333,0
14547,24,2,355,1
14548,24,2,399,1
14549,24,1,394,1
14550,24,1,509,1
14551,24,1,336,1
14552,24,1,421,1
14553,24,2,383,1
14554,24,2,530,0
14555,24,2,572,1
14556,24,2,301,0
14557,24,1,275,0
14558,24,1,275,1
14559,24,2,403,1
14656,24,1,277,1
14657,24,2,316,1
14658,24,1,402,1
14659,24,2,396,0
14660,24,1,383,1
14661,24,1,434,1
14662,24,1,412,1
14663,24,2,326,0
14664,24,2,348,1
14665,24,2,392,1
14666,24,1,500,1
14667,24,2,362,0
14668,24,2,478,1
14669,24,1,374,1
14670,24,1,458,1
14671,24,1,562,1
14672,24,2,507,1
14673,24,1,374,1
14674,24,2,314,0
14675,24,1,368,1
14676,24,2,396,1
14677,24,1,423,0
14678,24,2,473,0
14679,24,1,353,1
14680,24,1,285,1
14681,24,1,453,1
14682,24,2,365,0
14683,24,2,417,1
14684,24,2,267,0
14685,24,1,307,1
14686,24,2,522,1
14687,24,2,372,1
14784,24,2,474,0
14785,24,2,306,0
14786,24,2,449,1
14787,24,2,481,1
14788,24,2,417,1
14789,24,1,563,0
14790,24,2,427,1
14791,24,1,340,1
14792,24,1,338,1
14793,24,1,327,0
14794,24,2,428,1
14795,24,1,398,1
14796,24,1,432,1
14797,24,1,362,1
14798,24,2,390,1
14799,24,2,409,1
14800,24,1,372,1
14801,24,2,400,0
14802,24,2,362,1
14803,24,1,390,1
14804,24,2,370,1
14805,24,1,326,1
14806,24,1,355,1
14807,24,1,368,1
14808,24,2,388,1
14809,24,1,399,1
14810,24,2,250,0
14811,24,2,443,1
14812,24,1,444,1
14813,24,1,325,0
14814,24,2,371,0
14815,24,1,351,1
14912,24,2,327,0
14913,24,1,356,1
14914,24,2,384,1
14915,24,2,396,1
14916,24,1,334,0
14917,24,1,356,1
14918,24,2,352,1
14919,24,2,309,1
14920,24,2,340,1
14921,24,1,249,1
14922,24,1,322,1
14923,24,1,352,1
14924,24,1,372,1
14925,24,2,512,1
14926,24,1,355,1
14927,24,2,303,0
14928,24,2,374,1
14929,24,2,194,1
14930,24,1,341,1
14931,24,1,218,1
14932,24,1,388,1
14933,24,1,271,0
14934,24,1,479,1
14935,24,2,374,0
14936,24,2,450,1
14937,24,2,299,1
14938,24,2,306,1
14939,24,1,304,1
14940,24,1,359,0
14941,24,1,380,1
14942,24,2,438,1
14943,24,2,327,1
15040,24,1,462,1
15041,24,2,366,0
15042,24,2,434,1
15043,24,2,371,1
15044,24,1,423,1
15045,24,1,296,1
15046,24,1,294,1
15047,24,1,365,1
15048,24,2,489,1
15049,24,1,552,1
15050,24,2,458,1
15051,24,2,418,1
15052,24,1,356,1
15053,24,2,377,1
15054,24,1,356,1
15055,24,2,361,0
15056,24,2,389,0
15057,24,1,304,1
15058,24,1,335,1
15059,24,1,340,1
15060,24,2,281,0
15061,24,2,497,1
15062,24,1,311,1
15063,24,2,461,1
15064,24,2,461,1
15065,24,2,333,1
15066,24,1,363,1
15067,24,2,591,1
15068,24,2,343,0
15069,24,1,260,0
15070,24,1,484,1
15071,24,1,355,0
15168,24,1,266,0
15169,24,1,346,1
15170,24,1,326,1
15171,24,1,244,1
15172,24,1,396,1
15173,24,2,271,1
15174,24,2,367,1
15175,24,1,315,1
15176,24,1,193,1
15177,24,2,347,0
15178,24,2,296,0
15179,24,2,367,1
15180,24,2,755,1
15181,24,1,444,0
15182,24,2,221,0
15183,24,2,534,1
15184,24,1,408,1
15185,24,2,163,1
15186,24,1,399,1
15187,24,2,426,1
15188,24,2,372,0
15189,24,1,368,0
15190,24,2,404,1
15191,24,2,462,1
15192,24,2,350,0
15193,24,1,299,1
15194,24,2,313,0
15195,24,1,367,1
15196,24,1,363,0
15197,24,2,279,0
15198,24,1,271,0
15199,24,1,519,1
15392,25,1,366,1
15393,25,2,410,0
15394,25,1,436,1
15395,25,1,285,1
15396,25,2,340,0
15397,25,1,394,1
15398,25,2,356,1
15399,25,2,305,1
15400,25,2,376,1
15401,25,2,316,0
15402,25,2,442,1
15403,25,1,403,1
15404,25,2,430,1
15405,25,2,295,0
15406,25,2,477,1
15407,25,1,373,1
15408,25,2,313,1
15409,25,1,327,1
15410,25,1,276,1
15411,25,1,308,1
15412,25,1,331,1
15413,25,1,336,1
15414,25,2,309,0
15415,25,1,364,1
15416,25,1,296,1
15417,25,1,326,1
15418,25,2,308,0
15419,25,2,330,1
15420,25,2,328,1
15421,25,1,293,1
15422,25,2,380,1
15423,25,1,344,1
15520,25,2,372,0
15521,25,1,400,1
15522,25,2,402,1
15523,25,2,397,1
15524,25,1,304,1
15525,25,2,406,1
15526,25,2,425,1
15527,25,2,291,0
15528,25,2,394,1
15529,25,1,325,1
15530,25,1,323,1
15531,25,2,329,0
15532,25,1,286,1
15533,25,1,349,1
15534,25,1,321,1
15535,25,2,327,0
15536,25,1,332,1
15537,25,1,354,1
15538,25,2,390,1
15539,25,1,338,1
15540,25,1,279,1
15541,25,2,350,1
15542,25,1,283,1
15543,25,1,314,1
15544,25,1,320,1
15545,25,2,390,1
15546,25,1,329,1
15547,25,2,343,1
15548,25,2,339,1
15549,25,2,385,1
15550,25,1,364,1
15551,25,2,360,1
15648,25,2,393,1
15649,25,2,244,1
15650,25,1,284,1
15651,25,1,291,1
15652,25,1,307,1
15653,25,2,353,1
15654,25,1,326,0
15655,25,2,331,1
15656,25,2,257,1
15657,25,2,313,0
15658,25,1,303,1
15659,25,2,318,1
15660,25,2,324,1
15661,25,2,290,0
15662,25,2,417,1
15663,25,2,331,0
15664,25,1,320,1
15665,25,2,366,1
15666,25,1,282,1
15667,25,1,337,1
15668,25,1,335,1
15669,25,2,316,0
15670,25,1,434,1
15671,25,2,387,1
15672,25,1,255,1
15673,25,1,351,1
15674,25,1,300,1
15675,25,1,299,1
15676,25,1,273,1
15677,25,2,353,1
15678,25,1,326,1
15679,25,2,340,1
15776,25,1,320,1
15777,25,2,318,0
15778,25,1,292,1
15779,25,1,308,1
15780,25,2,282,0
15781,25,2,257,0
15782,25,1,298,1
15783,25,1,305,1
15784,25,2,319,0
15785,25,1,341,1
15786,25,2,491,1
15787,25,2,306,1
15788,25,1,321,1
15789,25,2,342,1
15790,25,1,356,1
15791,25,2,328,0
15792,25,2,326,1
15793,25,2,380,1
15794,25,1,327,1
15795,25,1,332,1
15796,25,1,290,1
15797,25,1,281,1
15798,25,2,240,1
15799,25,2,313,1
15800,25,2,327,1
15801,25,2,301,0
15802,25,1,339,1
15803,25,1,345,1
15804,25,1,325,1
15805,25,1,299,1
15806,25,2,338,1
15807,25,2,359,1
15904,25,2,342,0
15905,25,2,315,1
15906,25,1,273,1
15907,25,1,313,1
15908,25,2,311,1
15909,25,2,373,1
15910,25,2,417,1
15911,25,1,299,1
15912,25,2,329,0
15913,25,2,351,1
15914,25,1,299,1
15915,25,2,314,0
15916,25,2,304,1
15917,25,1,343,1
15918,25,2,316,0
15919,25,2,474,1
15920,25,1,354,1
15921,25,1,286,1
15922,25,1,318,1
15923,25,2,332,1
15924,25,1,297,1
15925,25,1,320,1
15926,25,2,262,0
15927,25,1,406,1
15928,25,1,352,1
15929,25,1,309,1
15930,25,2,371,1
15931,25,2,327,1
15932,25,1,268,1
15933,25,1,332,1
15934,25,1,305,1
15935,25,2,320,0
16032,25,1,320,1
16033,25,1,286,1
16034,25,1,286,1
16035,25,1,253,1
16036,25,1,262,1
16037,25,2,206,0
16038,25,2,304,0
16039,25,2,351,1
16040,25,1,323,1
16041,25,1,249,1
16042,25,2,306,1
16043,25,1,305,1
16044,25,1,255,1
16045,25,2,232,0
16046,25,2,360,0
16047,25,2,316,1
16048,25,1,370,1
16049,25,1,278,1
16050,25,2,413,1
16051,25,2,375,1
16052,25,1,275,1
16053,25,1,299,1
16054,25,1,298,1
16055,25,1,312,1
16056,25,2,326,1
16057,25,2,348,1
16058,25,1,304,0
16059,25,2,303,0
16060,25,2,374,1
16061,25,2,258,1
16062,25,2,282,1
16063,25,2,433,1
16352,26,1,426,1
16353,26,2,508,1
16354,26,1,599,1
16355,26,1,406,1
16356,26,2,593,1
16357,26,1,424,1
16358,26,1,426,1
16359,26,2,452,1
16360,26,2,509,1
16361,26,1,392,1
16362,26,2,435,1
16363,26,2,389,1
16364,26,2,552,1
16365,26,1,376,1
16366,26,2,483,1
16367,26,1,363,1
16368,26,2,431,1
16369,26,2,384,1
16370,26,1,419,0
16371,26,1,517,1
16372,26,2,440,1
16373,26,2,337,0
16374,26,1,351,1
16375,26,1,363,1
16376,26,2,399,1
16377,26,2,354,1
16378,26,1,447,1
16379,26,2,303,1
16380,26,1,382,1
16381,26,1,337,1
16382,26,2,367,1
16383,26,1,418,1
16480,26,2,556,1
16481,26,2,429,0
16482,26,1,455,1
16483,26,1,375,1
16484,26,1,315,1
16485,26,1,337,1
16486,26,2,374,0
16487,26,1,393,0
16488,26,1,404,1
16489,26,2,447,1
16490,26,1,327,1
16491,26,2,397,1
16492,26,2,351,1
16493,26,1,316,1
16494,26,1,362,1
16495,26,1,358,1
16496,26,2,347,1
16497,26,2,303,1
16498,26,2,294,0
16499,26,1,525,1
16500,26,1,391,1
16501,26,1,570,1
16502,26,2,339,1
16503,26,2,432,1
16504,26,2,490,1
16505,26,2,409,1
16506,26,1,332,1
16507,26,1,313,1
16508,26,2,327,0
16509,26,2,316,0
16510,26,2,458,1
16511,26,1,395,1
16608,26,2,599,1
16609,26,2,374,1
16610,26,1,361,1
16611,26,2,357,0
16612,26,1,346,1
16613,26,1,334,1
16614,26,2,404,1
16615,26,2,294,1
16616,26,2,381,1
16617,26,1,352,1
16618,26,2,373,1
16619,26,1,361,1
16620,26,2,373,1
16621,26,2,345,1
16622,26,1,389,1
16623,26,1,449,1
16624,26,1,361,1
16625,26,2,333,1
16626,26,1,347,1
16627,26,1,335,1
16628,26,2,381,1
16629,26,1,424,1
16630,26,2,402,0
16631,26,2,453,1
16632,26,1,389,1
16633,26,1,537,1
16634,26,2,435,1
16635,26,2,460,1
16636,26,1,468,1
16637,26,1,492,0
16638,26,2,579,1
16639,26,1,499,1
16736,26,1,311,1
16737,26,2,349,1
16738,26,2,289,1
16739,26,1,385,1
16740,26,1,388,1
16741,26,1,367,1
16742,26,2,331,1
16743,26,2,321,1
16744,26,1,311,1
16745,26,2,253,0
16746,26,2,309,0
16747,26,2,435,1
16748,26,1,317,1
16749,26,1,331,0
16750,26,2,472,1
16751,26,1,368,1
16752,26,2,380,1
16753,26,2,415,1
16754,26,1,361,1
16755,26,1,365,1
16756,26,2,417,1
16757,26,2,355,1
16758,26,1,384,0
16759,26,2,395,1
16760,26,1,374,1
16761,26,2,370,1
16762,26,2,342,1
16763,26,1,363,1
16764,26,1,399,1
16765,26,2,402,1
16766,26,1,356,1
16767,26,1,601,1
16864,26,1,482,1
16865,26,1,377,1
16866,26,1,308,0
16867,26,1,323,1
16868,26,2,297,1
16869,26,1,392,1
16870,26,1,411,1
16871,26,1,421,1
16872,26,1,359,1
16873,26,2,371,1
16874,26,2,375,0
16875,26,2,411,1
16876,26,1,357,1
16877,26,1,386,1
16878,26,1,389,1
16879,26,2,369,0
16880,26,2,301,1
16881,26,2,291,1
16882,26,2,299,0
16883,26,2,313,0
16884,26,1,319,1
16885,26,2,405,1
16886,26,2,784,1
16887,26,2,400,1
16888,26,1,394,1
16889,26,2,357,1
16890,26,2,442,1
16891,26,2,347,0
16892,26,1,512,0
16893,26,1,354,1
16894,26,1,343,1
16895,26,2,356,1
16992,26,1,510,1
16993,26,1,328,1
16994,26,2,318,0
16995,26,2,308,1
16996,26,2,346,1
16997,26,2,359,1
16998,26,2,404,1
16999,26,2,358,0
17000,26,2,419,1
17001,26,2,349,1
17002,26,1,394,1
17003,26,2,372,1
17004,26,1,352,1
17005,26,1,421,1
17006,26,1,423,1
17007,26,1,361,1
17008,26,1,365,1
17009,26,1,321,1
17010,26,1,399,1
17011,26,1,433,1
17012,26,2,515,1
17013,26,1,405,1
17014,26,2,368,1
17015,26,2,444,1
17016,26,1,437,1
17017,26,2,566,1
17018,26,2,503,1
17019,26,1,370,1
17020,26,2,390,0
17021,26,2,433,1
17022,26,1,410,1
17023,26,1,292,1
17152,27,2,496,1
17153,27,1,334,1
17154,27,1,356,1
17155,27,1,320,1
17156,27,2,374,1
17157,27,1,378,0
17158,27,2,382,1
17159,27,2,409,1
17160,27,2,364,0
17161,27,1,376,1
17162,27,1,299,1
17163,27,1,329,1
17164,27,1,310,1
17165,27,2,316,0
17166,27,2,482,1
17167,27,1,354,1
17168,27,1,310,1
17169,27,1,308,1
17170,27,2,363,1
17171,27,1,399,1
17172,27,2,354,0
17173,27,1,350,1
17174,27,2,467,1
17175,27,1,459,1
17176,27,1,316,1
17177,27,2,394,1
17178,27,1,412,1
17179,27,2,358,1
17180,27,2,507,1
17181,27,2,470,1
17182,27,2,302,1
17183,27,2,421,1
17280,27,1,478,1
17281,27,1,310,1
17282,27,1,300,1
17283,27,1,307,0
17284,27,2,393,1
17285,27,1,331,1
17286,27,2,312,0
17287,27,2,526,1
17288,27,2,424,1
17289,27,2,434,1
17290,27,1,332,1
17291,27,1,345,1
17292,27,2,462,1
17293,27,2,398,1
17294,27,2,376,1
17295,27,2,316,0
17296,27,2,442,1
17297,27,1,443,1
17298,27,1,500,1
17299,27,2,346,1
17300,27,2,431,1
17301,27,2,376,1
17302,27,2,420,1
17303,27,2,462,1
17304,27,1,430,1
17305,27,2,455,1
17306,27,1,448,1
17307,27,1,416,1
17308,27,1,458,1
17309,27,1,371,1
17310,27,1,391,0
17311,27,1,426,1
17408,27,2,493,1
17409,27,2,364,1
17410,27,2,432,1
17411,27,2,481,1
17412,27,1,329,1
17413,27,2,366,1
17414,27,1,394,1
17415,27,1,317,1
17416,27,1,435,1
17417,27,2,372,0
17418,27,1,392,1
17419,27,2,539,1
17420,27,2,421,1
17421,27,2,423,1
17422,27,1,385,1
17423,27,1,357,1
17424,27,1,273,0
17425,27,2,369,1
17426,27,2,429,0
17427,27,1,439,1
17428,27,1,456,1
17429,27,1,417,1
17430,27,2,387,1
17431,27,2,414,1
17432,27,1,432,1
17433,27,1,489,1
17434,27,2,481,1
17435,27,2,464,1
17436,27,1,408,1
17437,27,2,459,1
17438,27,1,379,1
17439,27,1,335,1
17536,27,2,420,1
17537,27,1,342,1
17538,27,2,403,1
17539,27,2,390,1
17540,27,2,265,0
17541,27,1,321,0
17542,27,2,399,1
17543,27,1,401,1
17544,27,1,420,1
17545,27,1,382,0
17546,27,2,465,1
17547,27,1,369,0
17548,27,2,517,1
17549,27,1,496,1
17550,27,1,383,1
17551,27,2,434,1
17552,27,2,403,1
17553,27,1,382,1
17554,27,2,417,1
17555,27,1,451,1
17556,27,1,420,1
17557,27,1,382,1
17558,27,2,417,1
17559,27,2,411,1
17560,27,2,477,1
17561,27,2,421,1
17562,27,1,359,1
17563,27,1,411,1
17564,27,2,461,1
17565,27,2,437,1
17566,27,1,382,1
17567,27,1,369,1
17664,27,1,486,1
17665,27,1,389,1
17666,27,1,409,1
17667,27,2,387,1
17668,27,2,383,0
17669,27,1,402,1
17670,27,1,325,1
17671,27,2,443,1
17672,27,2,420,1
17673,27,2,342,1
17674,27,2,291,0
17675,27,2,354,1
17676,27,2,391,1
17677,27,1,530,1
17678,27,2,460,1
17679,27,1,340,1
17680,27,2,514,1
17681,27,1,435,1
17682,27,2,469,1
17683,27,1,349,1
17684,27,2,313,0
17685,27,2,383,1
17686,27,1,466,1
17687,27,1,418,1
17688,27,2,381,1
17689,27,1,328,1
17690,27,2,333,1
17691,27,1,346,1
17692,27,1,239,1
17693,27,1,440,1
17694,27,2,402,1
17695,27,1,340,1
17792,27,1,402,1
17793,27,1,365,1
17794,27,2,313,0
17795,27,2,327,1
17796,27,1,364,1
17797,27,2,368,1
17798,27,1,300,1
17799,27,2,379,1
17800,27,2,430,1
17801,27,2,327,1
17802,27,2,565,1
17803,27,1,388,1
17804,27,2,408,1
17805,27,2,346,1
17806,27,1,383,0
17807,27,1,394,1
17808,27,2,421,1
17809,27,1,359,1
17810,27,2,404,1
17811,27,1,342,0
17812,27,1,388,1
17813,27,1,375,1
17814,27,1,363,1
17815,27,2,287,0
17816,27,2,326,1
17817,27,1,339,0
17818,27,2,513,1
17819,27,2,403,1
17820,27,2,430,1
17821,27,1,375,1
17822,27,1,387,1
17823,27,1,359,1
18112,28,2,487,1
18113,28,2,366,0
18114,28,1,402,1
18115,28,2,453,1
18116,28,1,382,1
18117,28,1,393,1
18118,28,1,364,1
18119,28,2,456,1
18120,28,1,424,1
18121,28,2,418,1
18122,28,1,388,1
18123,28,2,384,1
18124,28,1,347,1
18125,28,1,431,1
18126,28,1,577,1
18127,28,2,457,1
18128,28,2,441,1
18129,28,1,379,1
18130,28,1,350,1
18131,28,2,427,1
18132,28,1,356,1
18133,28,2,369,0
18134,28,1,517,1
18135,28,2,455,1
18136,28,1,368,1
18137,28,2,412,1
18138,28,1,366,1
18139,28,2,498,1
18140,28,1,409,1
18141,28,2,451,1
18142,28,2,388,1
18143,28,2,431,0
18240,28,2,579,1
18241,28,2,467,1
18242,28,2,403,1
18243,28,2,462,1
18244,28,1,382,1
18245,28,1,345,1
18246,28,2,390,0
18247,28,2,337,1
18248,28,2,462,1
18249,28,1,358,1
18250,28,1,435,1
18251,28,2,372,1
18252,28,1,344,1
18253,28,2,437,1
18254,28,1,414,1
18255,28,1,376,1
18256,28,2,467,1
18257,28,2,491,1
18258,28,2,459,1
18259,28,2,420,1
18260,28,1,414,1
18261,28,1,424,1
18262,28,2,458,1
18263,28,2,498,1
18264,28,2,433,1
18265,28,1,426,1
18266,28,1,380,1
18267,28,1,376,1
18268,28,1,508,1
18269,28,1,415,1
18270,28,1,457,1
18271,28,1,385,1
18368,28,2,454,1
18369,28,2,415,1
18370,28,1,377,1
18371,28,1,404,1
18372,28,2,399,1
18373,28,1,425,1
18374,28,1,387,1
18375,28,1,383,1
18376,28,2,442,1
18377,28,1,339,1
18378,28,2,449,1
18379,28,2,521,1
18380,28,1,404,1
18381,28,2,374,1
18382,28,1,378,1
18383,28,2,406,1
18384,28,2,400,1
18385,28,1,363,1
18386,28,2,479,1
18387,28,1,430,1
18388,28,1,408,1
18389,28,1,394,1
18390,28,2,453,1
18391,28,2,390,1
18392,28,2,441,1
18393,28,2,586,1
18394,28,1,402,1
18395,28,1,445,1
18396,28,2,445,1
18397,28,1,389,1
18398,28,1,433,1
18399,28,2,490,1
18496,28,1,450,1
18497,28,2,466,1
18498,28,2,386,1
18499,28,2,430,1
18500,28,1,359,1
18501,28,2,316,0
18502,28,2,354,1
18503,28,1,390,1
18504,28,1,314,1
18505,28,2,432,1
18506,28,1,361,1
18507,28,1,429,1
18508,28,2,438,1
18509,28,2,512,1
18510,28,2,442,1
18511,28,1,403,1
18512,28,1,374,1
18513,28,1,418,1
18514,28,2,396,0
18515,28,2,399,1
18516,28,2,465,1
18517,28,2,409,1
18518,28,2,507,1
18519,28,1,366,1
18520,28,1,370,1
18521,28,1,438,1
18522,28,1,488,1
18523,28,2,503,1
18524,28,1,370,1
18525,28,1,462,1
18526,28,1,422,1
18527,28,2,408,1
18624,28,2,402,0
18625,28,2,637,1
18626,28,1,347,1
18627,28,1,407,1
18628,28,1,442,1
18629,28,2,483,1
18630,28,1,411,1
18631,28,2,445,1
18632,28,2,446,1
18633,28,1,366,1
18634,28,2,450,1
18635,28,2,475,1
18636,28,1,403,1
18637,28,2,438,1
18638,28,1,415,1
18639,28,1,361,1
18640,28,2,461,1
18641,28,1,365,1
18642,28,2,456,0
18643,28,2,537,1
18644,28,1,442,1
18645,28,1,403,1
18646,28,1,366,1
18647,28,1,426,1
18648,28,1,411,1
18649,28,1,437,1
18650,28,2,414,1
18651,28,2,368,1
18652,28,2,476,1
18653,28,2,596,1
18654,28,2,699,1
18655,28,1,446,1
18752,28,1,429,1
18753,28,2,438,1
18754,28,2,352,1
18755,28,1,340,1
18756,28,2,410,1
18757,28,1,380,1
18758,28,2,376,1
18759,28,1,364,1
18760,28,2,352,1
18761,28,2,428,1
18762,28,2,462,1
18763,28,1,358,1
18764,28,1,425,1
18765,28,1,331,1
18766,28,2,377,1
18767,28,1,364,1
18768,28,1,416,1
18769,28,2,434,1
18770,28,2,491,1
18771,28,2,451,1
18772,28,2,379,1
18773,28,2,383,1
18774,28,2,458,1
18775,28,1,347,1
18776,28,2,479,1
18777,28,1,415,1
18778,28,1,441,1
18779,28,1,370,1
18780,28,1,366,1
18781,28,1,394,1
18782,28,2,413,1
18783,28,1,343,1
18976,29,1,651,0
18977,29,2,472,1
18978,29,2,352,1
18979,29,1,365,1
18980,29,1,417,0
18981,29,2,579,1
18982,29,2,435,1
18983,29,1,332,1
18984,29,1,361,1
18985,29,1,317,1
18986,29,1,299,1
18987,29,2,410,1
18988,29,2,324,1
18989,29,1,338,1
18990,29,2,271,0
18991,29,1,319,0
18992,29,1,293,1
18993,29,1,300,1
18994,29,2,315,0
18995,29,1,417,1
18996,29,2,371,0
18997,29,2,447,1
18998,29,1,304,1
18999,29,2,342,1
19000,29,2,331,0
19001,29,1,337,1
19002,29,2,446,0
19003,29,2,383,1
19004,29,1,330,1
19005,29,2,391,1
19006,29,1,355,1
19007,29,2,398,1
19104,29,1,763,1
19105,29,2,315,0
19106,29,2,393,1
19107,29,2,324,1
19108,29,2,378,1
19109,29,2,493,1
19110,29,2,348,0
19111,29,1,439,1
19112,29,1,377,1
19113,29,2,340,0
19114,29,1,505,1
19115,29,2,309,1
19116,29,1,291,1
19117,29,2,315,0
19118,29,1,288,1
19119,29,1,320,1
19120,29,1,358,1
19121,29,2,418,1
19122,29,1,404,1
19123,29,1,375,1
19124,29,2,379,1
19125,29,2,422,1
19126,29,1,320,1
19127,29,2,430,1
19128,29,1,344,1
19129,29,2,388,0
19130,29,1,368,1
19131,29,1,316,1
19132,29,1,378,1
19133,29,2,413,1
19134,29,1,367,1
19135,29,2,419,1
19232,29,1,428,0
19233,29,2,325,1
19234,29,1,323,1
19235,29,2,305,0
19236,29,1,360,1
19237,29,2,332,1
19238,29,1,313,1
19239,29,2,351,0
19240,29,1,308,1
19241,29,1,338,1
19242,29,1,360,1
19243,29,2,372,1
19244,29,2,400,1
19245,29,1,378,1
19246,29,2,358,1
19247,29,2,338,1
19248,29,2,408,1
19249,29,2,322,0
19250,29,1,360,1
19251,29,1,356,1
19252,29,2,505,1
19253,29,1,332,1
19254,29,1,321,1
19255,29,1,319,1
19256,29,2,301,1
19257,29,2,308,0
19258,29,1,306,0
19259,29,2,345,1
19260,29,1,310,1
19261,29,2,484,1
19262,29,2,363,0
19263,29,1,319,1
19360,29,2,552,1
19361,29,1,897,1
19362,29,2,572,0
19363,29,1,381,1
19364,29,2,352,0
19365,29,2,341,1
19366,29,1,370,1
19367,29,2,270,0
19368,29,2,350,1
19369,29,2,427,1
19370,29,2,308,0
19371,29,2,491,1
19372,29,2,402,1
19373,29,1,405,1
19374,29,1,407,1
19375,29,1,338,1
19376,29,1,303,1
19377,29,2,406,1
19378,29,2,401,1
19379,29,2,323,0
19380,29,1,377,0
19381,29,1,413,1
19382,29,2,319,1
19383,29,1,381,1
19384,29,1,376,1
19385,29,1,419,1
19386,29,1,357,1
19387,29,1,330,1
19388,29,2,335,1
19389,29,1,332,1
19390,29,1,385,0
19391,29,2,549,1
19488,29,2,410,1
19489,29,1,316,1
19490,29,1,226,0
19491,29,2,500,1
19492,29,1,322,0
19493,29,1,344,1
19494,29,2,325,0
19495,29,2,483,1
19496,29,2,722,1
19497,29,1,413,1
19498,29,2,335,0
19499,29,2,372,1
19500,29,1,336,1
19501,29,2,349,1
19502,29,2,362,0
19503,29,1,366,1
19504,29,1,378,1
19505,29,1,357,1
19506,29,1,370,1
19507,29,2,398,1
19508,29,2,369,0
19509,29,1,397,1
19510,29,1,319,1
19511,29,2,349,1
19512,29,2,330,0
19513,29,1,335,1
19514,29,2,348,0
19515,29,1,393,1
19516,29,1,388,1
19517,29,1,335,1
19518,29,2,348,1
19519,29,2,409,1
19616,29,1,617,1
19617,29,1,343,1
19618,29,1,348,1
19619,29,2,304,0
19620,29,2,359,0
19621,29,1,356,1
19622,29,1,296,1
19623,29,2,375,1
19624,29,2,331,0
19625,29,2,456,1
19626,29,1,353,1
19627,29,2,334,1
19628,29,2,323,0
19629,29,2,329,0
19630,29,2,398,1
19631,29,1,369,1
19632,29,1,349,1
19633,29,1,393,1
19634,29,1,348,1
19635,29,1,345,1
19636,29,1,373,1
19637,29,2,440,1
19638,29,1,355,1
19639,29,1,351,1
19640,29,1,387,1
19641,29,2,318,0
19642,29,1,308,1
19643,29,2,339,1
19644,29,2,320,0
19645,29,2,422,1
19646,29,2,328,1
19647,29,2,261,0
19840,3,1,709,1
19841,3,2,488,1
19842,3,1,415,1
19843,3,2,465,1
19844,3,2,449,1
19845,3,2,466,1
19846,3,2,482,1
19847,3,1,465,1
19848,3,1,449,1
19849,3,1,498,1
19850,3,1,409,1
19851,3,2,523,1
19852,3,2,766,1
19853,3,1,391,1
19854,3,2,466,1
19855,3,1,482,1
19856,3,1,377,1
19857,3,1,349,1
19858,3,1,425,1
19859,3,2,451,0
19860,3,2,684,1
19861,3,1,432,1
19862,3,1,448,1
19863,3,2,345,0
19864,3,2,486,1
19865,3,2,437,1
19866,3,1,406,1
19867,3,1,377,1
19868,3,2,524,1
19869,3,2,431,1
19870,3,2,448,0
19871,3,1,401,1
19968,3,2,479,1
19969,3,1,406,1
19970,3,2,417,1
19971,3,2,435,1
19972,3,1,420,1
19973,3,2,438,1
19974,3,1,480,1
19975,3,1,431,1
19976,3,1,376,1
19977,3,2,420,1
19978,3,1,797,1
19979,3,1,477,1
19980,3,2,412,1
19981,3,2,542,1
19982,3,2,368,1
19983,3,1,412,1
19984,3,2,374,1
19985,3,2,386,1
19986,3,2,429,0
19987,3,2,446,1
19988,3,1,359,1
19989,3,1,387,1
19990,3,1,398,1
19991,3,2,393,0
19992,3,1,412,1
19993,3,1,366,1
19994,3,2,410,0
19995,3,1,404,1
19996,3,1,366,1
19997,3,2,458,1
19998,3,1,419,1
19999,3,2,357,1
20096,3,1,428,1
20097,3,1,381,1
20098,3,2,488,0
20099,3,1,416,1
20100,3,1,498,1
20101,3,2,488,1
20102,3,1,392,1
20103,3,1,443,1
20104,3,2,500,1
20105,3,2,451,1
20106,3,2,459,0
20107,3,1,371,1
20108,3,2,471,1
20109,3,2,463,1
20110,3,2,471,0
20111,3,1,479,1
20112,3,1,391,1
20113,3,2,434,1
20114,3,2,499,1
20115,3,2,426,1
20116,3,1,467,1
20117,3,1,499,1
20118,3,1,466,1
20119,3,2,410,1
20120,3,1,492,1
20121,3,1,483,1
20122,3,1,435,1
20123,3,1,428,1
20124,3,2,461,1
20125,3,2,397,1
20126,3,2,376,1
20127,3,2,460,1
20224,3,1,430,1
20225,3,2,512,1
20226,3,1,570,1
20227,3,1,427,1
20228,3,2,444,1
20229,3,2,429,1
20230,3,1,430,0
20231,3,2,767,1
20232,3,2,440,1
20233,3,2,385,1
20234,3,1,357,1
20235,3,1,393,1
20236,3,1,332,1
20237,3,1,369,1
20238,3,2,453,1
20239,3,2,366,1
20240,3,2,410,1
20241,3,2,388,0
20242,3,1,447,1
20243,3,2,424,1
20244,3,1,450,0
20245,3,2,507,1
20246,3,2,414,1
20247,3,1,456,1
20248,3,1,449,1
20249,3,1,433,1
20250,3,2,435,1
20251,3,2,500,1
20252,3,1,426,1
20253,3,2,395,1
20254,3,1,550,1
20255,3,1,375,1
20352,3,2,427,0
20353,3,1,412,1
20354,3,2,462,1
20355,3,1,358,1
20356,3,1,443,1
20357,3,2,580,1
20358,3,2,532,1
20359,3,2,446,1
20360,3,1,431,1
20361,3,2,464,1
20362,3,1,448,0
20363,3,1,457,1
20364,3,1,377,1
20365,3,2,333,1
20366,3,1,458,1
20367,3,2,499,1
20368,3,1,337,1
20369,3,1,374,1
20370,3,1,338,1
20371,3,1,343,1
20372,3,1,308,0
20373,3,2,514,1
20374,3,1,373,1
20375,3,1,369,0
20376,3,2,613,1
20377,3,2,371,1
20378,3,2,583,1
20379,3,2,439,1
20380,3,2,465,1
20381,3,2,393,1
20382,3,1,395,1
20383,3,2,430,1
20480,3,1,446,1
20481,3,1,373,1
20482,3,1,369,1
20483,3,1,365,1
20484,3,2,393,1
20485,3,1,716,1
20486,3,2,431,1
20487,3,1,440,1
20488,3,1,601,1
20489,3,1,313,1
20490,3,2,391,1
20491,3,1,434,1
20492,3,1,443,1
20493,3,1,460,1
20494,3,2,532,1
20495,3,2,462,1
20496,3,2,382,1
20497,3,2,545,1
20498,3,2,458,1
20499,3,2,411,1
20500,3,1,429,1
20501,3,1,446,1
20502,3,2,471,1
20503,3,1,567,1
20504,3,2,416,1
20505,3,2,458,1
20506,3,2,434,1
20507,3,2,388,0
20508,3,1,423,1
20509,3,2,329,1
20510,3,1,366,1
20511,3,2,418,1
20832,30,1,207,0
20833,30,2,298,1
20834,30,2,240,0
20835,30,2,258,1
20836,30,1,378,1
20837,30,1,302,1
20838,30,1,276,1
20839,30,1,284,0
20840,30,1,228,1
20841,30,2,212,0
20842,30,2,438,1
20843,30,2,287,0
20844,30,1,391,1
20845,30,1,530,1
20846,30,2,316,1
20847,30,2,297,0
20848,30,2,176,1
20849,30,1,11,0
20850,30,2,525,1
20851,30,2,384,0
20852,30,1,315,1
20853,30,1,385,1
20854,30,1,316,1
20855,30,1,346,1
20856,30,1,343,1
20857,30,2,396,0
20858,30,2,614,1
20859,30,2,381,0
20860,30,2,368,0
20861,30,2,276,1
20862,30,1,195,0
20863,30,1,342,1
20960,30,1,313,1
20961,30,2,335,0
20962,30,2,388,0
20963,30,2,431,1
20964,30,1,329,1
20965,30,1,334,0
20966,30,1,387,1
20967,30,2,423,1
20968,30,2,360,1
20969,30,2,348,1
20970,30,1,321,1
20971,30,2,303,1
20972,30,2,334,1
20973,30,1,347,1
20974,30,2,464,1
20975,30,2,504,1
20976,30,1,323,1
20977,30,1,337,1
20978,30,1,326,1
20979,30,2,387,1
20980,30,2,319,1
20981,30,2,293,1
20982,30,1,300,1
20983,30,1,387,1
20984,30,2,326,0
20985,30,1,348,1
20986,30,1,273,1
20987,30,1,312,1
20988,30,1,206,1
20989,30,2,265,1
20990,30,1,329,1
20991,30,2,310,1
21088,30,1,333,1
21089,30,2,323,1
21090,30,1,417,1
21091,30,1,355,1
21092,30,2,319,1
21093,30,2,469,1
21094,30,1,285,0
21095,30,2,341,1
21096,30,2,338,1
21097,30,2,327,0
21098,30,2,388,1
21099,30,2,400,1
21100,30,1,434,1
21101,30,1,356,1
21102,30,2,432,1
21103,30,1,346,1
21104,30,1,310,1
21105,30,2,308,1
21106,30,1,363,1
21107,30,2,351,1
21108,30,2,348,0
21109,30,2,408,1
21110,30,1,355,1
21111,30,1,312,1
21112,30,1,341,1
21113,30,2,235,1
21114,30,1,316,1
21115,30,1,330,1
21116,30,2,303,1
21117,30,1,406,1
21118,30,2,361,1
21119,30,1,349,1
21216,30,2,433,1
21217,30,2,419,1
21218,30,2,285,1
21219,30,2,300,0
21220,30,1,395,1
21221,30,1,341,1
21222,30,1,283,1
21223,30,1,338,1
21224,30,2,319,0
21225,30,2,405,1
21226,30,2,352,1
21227,30,2,324,1
21228,30,1,322,1
21229,30,2,376,1
21230,30,1,420,1
21231,30,2,390,1
21232,30,2,337,1
21233,30,2,478,1
21234,30,1,422,1
21235,30,1,472,1
21236,30,2,312,1
21237,30,2,390,1
21238,30,1,289,1
21239,30,1,352,1
21240,30,1,541,1
21241,30,1,359,0
21242,30,1,347,1
21243,30,1,360,1
21244,30,2,347,1
21245,30,1,272,0
21246,30,1,384,1
21247,30,2,403,0
21344,30,1,424,1
21345,30,1,290,1
21346,30,1,305,1
21347,30,2,304,0
21348,30,1,294,1
21349,30,2,293,0
21350,30,1,323,1
21351,30,2,265,0
21352,30,1,353,1
21353,30,1,414,0
21354,30,2,368,0
21355,30,2,452,1
21356,30,1,333,1
21357,30,1,378,1
21358,30,2,389,1
21359,30,2,337,1
21360,30,2,374,1
21361,30,2,386,1
21362,30,2,397,1
21363,30,1,320,1
21364,30,1,294,1
21365,30,2,388,1
21366,30,2,408,1
21367,30,1,418,1
21368,30,2,276,0
21369,30,1,412,1
21370,30,2,382,1
21371,30,1,329,1
21372,30,1,270,1
21373,30,2,254,1
21374,30,2,399,1
21375,30,1,426,1
21472,30,2,523,1
21473,30,1,398,1
21474,30,2,329,1
21475,30,2,294,1
21476,30,2,389,1
21477,30,2,304,1
21478,30,1,399,1
21479,30,1,385,1
21480,30,1,316,1
21481,30,1,362,1
21482,30,2,302,1
21483,30,2,365,1
21484,30,1,337,1
21485,30,2,390,0
21486,30,1,378,1
21487,30,2,405,1
21488,30,1,304,1
21489,30,1,358,1
21490,30,2,395,1
21491,30,2,334,0
21492,30,2,323,1
21493,30,2,441,1
21494,30,1,322,1
21495,30,2,296,0
21496,30,2,391,1
21497,30,2,298,0
21498,30,1,329,1
21499,30,1,366,1
21500,30,1,370,1
21501,30,1,366,1
21502,30,1,242,1
21503,30,1,427,1
21632,31,1,425,1
21633,31,2,443,1
21634,31,2,484,1
21635,31,2,427,1
21636,31,1,452,1
21637,31,1,389,1
21638,31,2,408,1
21639,31,2,371,1
21640,31,2,375,1
21641,31,2,355,0
21642,31,2,504,1
21643,31,1,363,1
21644,31,1,366,1
21645,31,2,290,0
21646,31,1,425,1
21647,31,2,379,1
21648,31,1,446,1
21649,31,1,359,1
21650,31,1,403,1
21651,31,2,350,0
21652,31,1,322,1
21653,31,2,440,1
21654,31,1,434,1
21655,31,1,499,1
21656,31,1,346,1
21657,31,1,542,1
21658,31,1,336,1
21659,31,2,477,1
21660,31,2,469,1
21661,31,1,405,1
21662,31,2,439,1
21663,31,2,481,1
21760,31,1,498,1
21761,31,1,409,1
21762,31,2,491,1
21763,31,1,491,1
21764,31,2,386,1
21765,31,2,477,1
21766,31,2,469,1
21767,31,2,445,1
21768,31,1,469,1
21769,31,1,469,1
21770,31,2,429,1
21771,31,1,398,1
21772,31,2,433,1
21773,31,2,386,1
21774,31,1,445,1
21775,31,1,438,1
21776,31,2,463,1
21777,31,1,463,1
21778,31,2,455,1
21779,31,1,576,1
21780,31,1,896,1
21781,31,1,403,1
21782,31,2,886,1
21783,31,1,506,1
21784,31,2,461,1
21785,31,2,357,0
21786,31,1,418,1
21787,31,2,476,1
21788,31,2,340,1
21789,31,2,481,1
21790,31,1,400,1
21791,31,1,491,1
21888,31,1,423,1
21889,31,2,433,1
21890,31,1,418,1
21891,31,1,380,1
21892,31,1,487,1
21893,31,1,447,1
21894,31,1,368,1
21895,31,2,500,1
21896,31,1,394,1
21897,31,2,381,1
21898,31,2,504,1
21899,31,2,483,1
21900,31,2,539,1
21901,31,2,365,1
21902,31,1,369,1
21903,31,2,437,1
21904,31,1,422,1
21905,31,2,408,1
21906,31,2,371,1
21907,31,1,495,1
21908,31,1,469,1
21909,31,2,421,1
21910,31,1,439,1
21911,31,1,401,1
21912,31,2,403,1
21913,31,2,390,1
21914,31,2,449,1
21915,31,1,418,1
21916,31,2,428,1
21917,31,1,461,1
21918,31,1,469,1
21919,31,2,388,0
22016,31,1,473,1
22017,31,1,417,1
22018,31,1,371,1
22019,31,1,439,1
22020,31,2,360,1
22021,31,2,460,1
22022,31,2,420,1
22023,31,1,438,1
22024,31,1,423,1
22025,31,1,457,1
22026,31,1,402,1
22027,31,2,381,1
22028,31,1,432,1
22029,31,2,401,1
22030,31,1,332,1
22031,31,1,457,1
22032,31,2,378,1
22033,31,2,389,0
22034,31,2,361,1
22035,31,2,421,1
22036,31,2,487,1
22037,31,2,358,1
22038,31,2,379,1
22039,31,1,406,1
22040,31,2,505,1
22041,31,1,404,1
22042,31,2,502,1
22043,31,1,442,1
22044,31,1,467,1
22045,31,1,403,1
22046,31,2,334,0
22047,31,2,339,1
22144,31,2,492,0
22145,31,2,435,1
22146,31,1,364,1
22147,31,1,392,1
22148,31,1,380,1
22149,31,2,327,1
22150,31,1,388,1
22151,31,1,360,1
22152,31,2,380,1
22153,31,2,431,1
22154,31,2,416,1
22155,31,1,450,1
22156,31,2,355,1
22157,31,2,408,1
22158,31,2,362,1
22159,31,2,358,1
22160,31,2,387,1
22161,31,1,374,1
22162,31,1,386,1
22163,31,2,373,1
22164,31,1,401,1
22165,31,1,396,1
22166,31,1,359,1
22167,31,1,483,1
22168,31,2,362,1
22169,31,1,382,1
22170,31,2,345,0
22171,31,2,294,1
22172,31,1,365,1
22173,31,1,305,1
22174,31,2,407,1
22175,31,1,362,1
22272,31,2,460,1
22273,31,2,452,1
22274,31,2,373,1
22275,31,1,377,1
22276,31,2,356,1
22277,31,1,425,1
22278,31,1,411,1
22279,31,1,397,1
22280,31,2,375,1
22281,31,2,363,1
22282,31,2,455,1
22283,31,2,360,0
22284,31,1,348,1
22285,31,2,377,1
22286,31,1,372,1
22287,31,1,384,1
22288,31,1,475,1
22289,31,2,363,1
22290,31,2,463,1
22291,31,2,359,1
22292,31,1,396,1
22293,31,1,333,1
22294,31,1,371,1
22295,31,2,343,1
22296,31,1,371,1
22297,31,2,263,0
22298,31,2,415,1
22299,31,2,417,1
22300,31,1,339,1
22301,31,1,385,1
22302,31,1,300,1
22303,31,1,411,1
22592,32,1,804,1
22593,32,1,378,1
22594,32,2,381,0
22595,32,2,553,1
22596,32,2,410,1
22597,32,1,404,1
22598,32,1,391,1
22599,32,1,354,0
22600,32,1,382,1
22601,32,2,378,1
22602,32,1,421,1
22603,32,2,423,1
22604,32,1,457,1
22605,32,1,434,1
22606,32,2,419,1
22607,32,1,397,1
22608,32,1,416,1
22609,32,2,426,1
22610,32,2,300,1
22611,32,2,386,0
22612,32,1,598,1
22613,32,2,549,1
22614,32,2,358,0
22615,32,2,467,1
22616,32,1,387,1
22617,32,2,118,1
22618,32,1,196,0
22619,32,2,351,0
22620,32,2,459,1
22621,32,1,316,1
22622,32,1,402,1
22623,32,2,413,1
22720,32,1,458,1
22721,32,2,362,0
22722,32,2,574,1
22723,32,1,335,1
22724,32,1,396,1
22725,32,2,495,1
22726,32,2,382,1
22727,32,2,417,1
22728,32,1,259,0
22729,32,1,356,1
22730,32,2,232,1
22731,32,1,201,1
22732,32,1,284,1
22733,32,2,323,0
22734,32,2,289,0
22735,32,1,177,1
22736,32,2,500,1
22737,32,1,235,0
22738,32,2,452,1
22739,32,1,332,1
22740,32,2,370,1
22741,32,2,278,1
22742,32,2,445,1
22743,32,1,486,1
22744,32,1,397,1
22745,32,1,424,1
22746,32,2,314,0
22747,32,2,408,1
22748,32,2,474,1
22749,32,1,362,1
22750,32,1,366,1
22751,32,1,370,1
22848,32,2,432,1
22849,32,2,345,0
22850,32,1,398,1
22851,32,1,344,1
22852,32,1,413,1
22853,32,2,391,1
22854,32,2,330,0
22855,32,1,344,1
22856,32,1,380,1
22857,32,2,567,1
22858,32,1,431,1
22859,32,2,400,1
22860,32,2,379,1
22861,32,1,390,1
22862,32,2,186,0
22863,32,2,517,1
22864,32,1,423,1
22865,32,1,281,1
22866,32,1,305,1
22867,32,2,375,1
22868,32,1,403,1
22869,32,2,174,1
22870,32,1,138,1
22871,32,1,119,0
22872,32,2,181,1
22873,32,1,240,1
22874,32,2,226,0
22875,32,2,412,1
22876,32,1,406,1
22877,32,1,288,1
22878,32,2,295,0
22879,32,2,110,0
22976,32,1,672,1
22977,32,1,333,1
22978,32,1,202,1
22979,32,2,5,1
22980,32,1,815,1
22981,32,1,382,1
22982,32,1,369,1
22983,32,2,341,0
22984,32,2,434,0
22985,32,2,372,1
22986,32,1,392,1
22987,32,2,347,1
22988,32,1,408,1
22989,32,2,570,1
22990,32,2,459,1
22991,32,2,404,0
22992,32,1,390,1
22993,32,1,354,1
22994,32,2,414,1
22995,32,2,464,1
22996,32,2,400,1
22997,32,1,291,1
22998,32,2,258,1
22999,32,1,243,1
23000,32,1,284,0
23001,32,1,219,1
23002,32,2,453,1
23003,32,2,462,1
23004,32,2,470,1
23005,32,2,430,1
23006,32,1,343,1
23007,32,1,348,1
23104,32,1,584,1
23105,32,1,328,1
23106,32,1,373,1
23107,32,2,385,0
23108,32,1,404,0
23109,32,1,311,1
23110,32,1,413,1
23111,32,2,519,1
23112,32,2,425,1
23113,32,1,243,1
23114,32,1,204,0
23115,32,2,95,1
23116,32,1,533,1
23117,32,1,359,1
23118,32,2,516,1
23119,32,2,445,1
23120,32,2,406,1
23121,32,1,409,1
23122,32,2,379,1
23123,32,1,406,1
23124,32,2,345,1
23125,32,2,342,1
23126,32,2,371,1
23127,32,2,383,1
23128,32,2,386,0
23129,32,1,414,1
23130,32,1,344,1
23131,32,2,428,1
23132,32,2,406,0
23133,32,1,384,1
23134,32,2,428,1
23135,32,1,429,1
23232,32,2,488,1
23233,32,1,471,1
23234,32,2,463,0
23235,32,2,463,0
23236,32,2,471,1
23237,32,2,399,0
23238,32,1,402,1
23239,32,1,468,1
23240,32,2,100,1
23241,32,1,363,1
23242,32,1,415,1
23243,32,1,361,1
23244,32,1,333,1
23245,32,2,426,0
23246,32,1,339,1
23247,32,2,345,1
23248,32,1,189,0
23249,32,1,449,1
23250,32,1,345,1
23251,32,1,358,1
23252,32,2,403,1
23253,32,2,429,1
23254,32,2,399,1
23255,32,2,585,1
23256,32,1,425,1
23257,32,2,387,1
23258,32,2,375,1
23259,32,2,354,0
23260,32,1,319,1
23261,32,1,357,1
23262,32,2,434,1
23263,32,1,379,1
23488,4,1,571,1
23489,4,2,372,0
23490,4,2,336,1
23491,4,2,389,1
23492,4,1,416,1
23493,4,2,426,1
23494,4,2,428,1
23495,4,1,421,1
23496,4,2,479,1
23497,4,1,422,1
23498,4,2,344,1
23499,4,1,357,1
23500,4,2,346,1
23501,4,1,334,1
23502,4,2,372,1
23503,4,1,320,1
23504,4,1,342,1
23505,4,1,315,1
23506,4,2,297,0
23507,4,1,408,0
23508,4,1,290,1
23509,4,1,338,1
23510,4,2,687,1
23511,4,1,459,1
23512,4,2,315,1
23513,4,1,345,1
23514,4,2,462,1
23515,4,2,494,1
23516,4,1,421,1
23517,4,2,399,1
23518,4,1,441,1
23519,4,2,483,1
23616,4,2,560,1
23617,4,1,440,1
23618,4,1,354,1
23619,4,2,414,1
23620,4,1,328,1
23621,4,2,478,1
23622,4,1,381,1
23623,4,2,440,1
23624,4,1,386,1
23625,4,2,429,1
23626,4,2,326,1
23627,4,1,340,1
23628,4,1,385,1
23629,4,1,324,1
23630,4,1,314,1
23631,4,1,392,1
23632,4,2,388,1
23633,4,2,446,1
23634,4,2,407,1
23635,4,2,465,1
23636,4,1,417,1
23637,4,1,355,1
23638,4,2,384,1
23639,4,2,387,1
23640,4,2,431,1
23641,4,1,360,1
23642,4,2,452,1
23643,4,2,501,1
23644,4,1,392,1
23645,4,1,371,1
23646,4,1,367,1
23647,4,2,387,1
23744,4,2,423,1
23745,4,2,369,1
23746,4,1,469,1
23747,4,1,453,1
23748,4,2,493,1
23749,4,2,388,1
23750,4,2,455,1
23751,4,2,408,1
23752,4,2,403,1
23753,4,1,389,1
23754,4,1,681,1
23755,4,2,461,1
23756,4,2,453,1
23757,4,2,397,1
23758,4,2,384,1
23759,4,1,411,1
23760,4,1,445,1
23761,4,1,366,1
23762,4,2,402,1
23763,4,1,477,1
23764,4,1,652,1
23765,4,1,369,1
23766,4,1,349,1
23767,4,2,362,1
23768,4,1,406,1
23769,4,1,305,0
23770,4,1,327,1
23771,4,1,333,1
23772,4,2,442,1
23773,4,2,387,1
23774,4,2,335,1
23775,4,1,404,1
23872,4,2,1096,0
23873,4,1,643,1
23874,4,1,385,1
23875,4,2,292,0
23876,4,2,539,1
23877,4,1,341,1
23878,4,2,402,1
23879,4,1,389,1
23880,4,2,536,1
23881,4,2,354,1
23882,4,1,415,1
23883,4,1,281,1
23884,4,1,328,1
23885,4,2,389,1
23886,4,1,329,1
23887,4,1,326,0
23888,4,2,332,1
23889,4,1,377,0
23890,4,2,357,0
23891,4,1,369,1
23892,4,1,317,1
23893,4,2,331,0
23894,4,1,305,1
23895,4,1,327,1
23896,4,2,396,1
23897,4,2,319,0
23898,4,1,445,1
23899,4,2,462,0
23900,4,1,374,1
23901,4,2,434,1
23902,4,2,498,1
23903,4,2,569,1
24000,4,1,416,1
24001,4,1,338,1
24002,4,2,407,0
24003,4,1,322,1
24004,4,2,360,1
24005,4,2,292,0
24006,4,2,435,1
24007,4,1,388,1
24008,4,1,384,1
24009,4,1,387,1
24010,4,1,398,1
24011,4,2,401,0
24012,4,1,412,1
24013,4,1,389,1
24014,4,2,472,1
24015,4,1,336,1
24016,4,2,301,1
24017,4,1,572,0
24018,4,1,492,0
24019,4,2,371,1
24020,4,1,431,1
24021,4,2,392,0
24022,4,2,539,1
24023,4,1,469,1
24024,4,2,357,1
24025,4,2,410,1
24026,4,2,404,0
24027,4,2,686,1
24028,4,1,354,1
24029,4,2,375,1
24030,4,2,331,1
24031,4,1,376,1
24128,4,1,458,1
24129,4,2,450,0
24130,4,2,483,1
24131,4,2,418,1
24132,4,1,300,1
24133,4,1,323,1
24134,4,2,297,0
24135,4,1,383,1
24136,4,2,307,0
24137,4,1,441,1
24138,4,1,291,1
24139,4,1,290,0
24140,4,1,401,1
24141,4,2,348,1
24142,4,2,353,1
24143,4,1,405,0
24144,4,1,360,1
24145,4,2,380,1
24146,4,1,431,1
24147,4,2,385,1
24148,4,1,356,1
24149,4,1,385,1
24150,4,2,476,0
24151,4,2,316,0
24152,4,1,410,0
24153,4,2,484,0
24154,4,1,347,1
24155,4,2,320,1
24156,4,2,366,0
24157,4,1,586,0
24158,4,2,578,1
24159,4,2,570,1
24352,5,1,509,1
24353,5,2,328,1
24354,5,2,318,0
24355,5,2,468,1
24356,5,2,340,1
24357,5,2,353,0
24358,5,1,293,1
24359,5,1,348,1
24360,5,2,321,0
24361,5,1,327,1
24362,5,1,372,1
24363,5,1,336,1
24364,5,1,325,1
24365,5,1,323,1
24366,5,2,297,1
24367,5,1,344,1
24368,5,1,341,1
24369,5,1,322,1
24370,5,2,320,0
24371,5,2,342,1
24372,5,2,531,1
24373,5,2,365,0
24374,5,1,361,1
24375,5,1,317,0
24376,5,1,354,1
24377,5,2,287,0
24378,5,1,374,1
24379,5,2,330,0
24380,5,1,335,0
24381,5,2,396,1
24382,5,2,359,0
24383,5,2,451,0
24480,5,1,431,1
24481,5,2,336,1
24482,5,1,341,1
24483,5,2,378,0
24484,5,1,374,1
24485,5,1,362,1
24486,5,2,454,1
24487,5,2,374,0
24488,5,1,450,1
24489,5,1,347,1
24490,5,1,392,1
24491,5,2,435,1
24492,5,2,332,1
24493,5,1,346,1
24494,5,2,334,0
24495,5,1,364,1
24496,5,2,448,1
24497,5,2,344,1
24498,5,2,341,1
24499,5,2,346,0
24500,5,2,383,1
24501,5,2,346,1
24502,5,1,343,1
24503,5,1,428,1
24504,5,1,349,1
24505,5,2,410,1
24506,5,1,372,1
24507,5,2,376,1
24508,5,2,412,1
24509,5,1,366,1
24510,5,1,546,1
24511,5,1,379,1
24608,5,2,418,1
24609,5,2,388,1
24610,5,2,343,0
24611,5,1,380,1
24612,5,1,335,1
24613,5,1,364,1
24614,5,2,360,0
24615,5,1,420,1
24616,5,2,374,0
24617,5,1,402,1
24618,5,1,397,1
24619,5,2,376,1
24620,5,1,388,1
24621,5,2,903,1
24622,5,1,434,1
24623,5,1,372,1
24624,5,1,344,1
24625,5,2,380,1
24626,5,2,416,1
24627,5,2,369,0
24628,5,1,405,1
24629,5,1,407,1
24630,5,1,378,1
24631,5,2,405,1
24632,5,1,376,1
24633,5,1,379,1
24634,5,1,366,1
24635,5,2,370,0
24636,5,2,518,1
24637,5,2,425,1
24638,5,2,355,1
24639,5,2,584,1
24736,5,1,324,1
24737,5,1,338,1
24738,5,1,328,1
24739,5,1,309,1
24740,5,1,436,1
24741,5,1,301,0
24742,5,2,404,0
24743,5,2,430,1
24744,5,1,343,1
24745,5,2,371,1
24746,5,2,351,1
24747,5,1,332,1
24748,5,1,337,1
24749,5,1,343,1
24750,5,2,379,1
24751,5,2,391,0
24752,5,2,338,0
24753,5,1,399,1
24754,5,2,410,1
24755,5,1,404,1
24756,5,2,334,1
24757,5,2,388,1
24758,5,1,335,1
24759,5,2,388,1
24760,5,1,328,1
24761,5,2,381,1
24762,5,2,424,1
24763,5,2,386,1
24764,5,1,366,1
24765,5,2,298,1
24766,5,1,512,1
24767,5,2,355,1
24864,5,1,429,1
24865,5,2,302,0
24866,5,1,365,1
24867,5,2,289,0
24868,5,1,400,1
24869,5,1,355,1
24870,5,2,367,1
24871,5,1,395,1
24872,5,1,382,1
24873,5,2,281,0
24874,5,1,329,1
24875,5,1,318,1
24876,5,2,404,1
24877,5,2,359,0
24878,5,1,355,1
24879,5,1,336,1
24880,5,1,349,1
24881,5,1,578,1
24882,5,1,386,1
24883,5,1,341,1
24884,5,2,450,1
24885,5,2,403,1
24886,5,2,334,1
24887,5,2,363,1
24888,5,2,375,1
24889,5,2,371,1
24890,5,1,407,1
24891,5,2,442,1
24892,5,2,339,1
24893,5,1,328,1
24894,5,2,302,1
24895,5,2,348,1
24992,5,1,400,1
24993,5,2,283,0
24994,5,2,346,1
24995,5,2,438,1
24996,5,1,352,1
24997,5,1,388,1
24998,5,1,400,1
24999,5,1,330,1
25000,5,2,400,1
25001,5,1,330,1
25002,5,1,288,1
25003,5,2,383,1
25004,5,1,354,1
25005,5,1,327,1
25006,5,2,340,1
25007,5,2,346,1
25008,5,1,326,1
25009,5,1,364,1
25010,5,1,344,1
25011,5,2,420,1
25012,5,2,358,0
25013,5,2,355,1
25014,5,1,343,1
25015,5,2,340,1
25016,5,2,345,1
25017,5,2,358,1
25018,5,2,355,1
25019,5,2,479,1
25020,5,2,455,1
25021,5,1,319,1
25022,5,1,413,1
25023,5,1,343,1
25312,6,2,653,1
25313,6,1,497,1
25314,6,1,472,1
25315,6,2,616,1
25316,6,2,535,1
25317,6,2,432,1
25318,6,2,466,1
25319,6,2,370,1
25320,6,1,406,1
25321,6,1,440,1
25322,6,2,354,0
25323,6,1,414,1
25324,6,1,392,1
25325,6,2,483,1
25326,6,2,346,1
25327,6,1,359,1
25328,6,1,532,1
25329,6,2,422,0
25330,6,2,536,1
25331,6,1,394,1
25332,6,1,492,1
25333,6,1,372,1
25334,6,2,504,1
25335,6,1,451,1
25336,6,1,403,1
25337,6,2,462,1
25338,6,1,550,1
25339,6,2,527,1
25340,6,1,289,1
25341,6,2,224,1
25342,6,1,426,1
25343,6,2,372,1
25440,6,2,563,1
25441,6,2,451,1
25442,6,2,340,0
25443,6,1,393,1
25444,6,1,316,1
25445,6,1,338,1
25446,6,2,415,1
25447,6,1,361,1
25448,6,1,405,1
25449,6,2,384,1
25450,6,1,427,1
25451,6,1,380,1
25452,6,2,328,1
25453,6,2,397,1
25454,6,2,376,0
25455,6,1,356,1
25456,6,1,408,1
25457,6,2,379,1
25458,6,2,430,1
25459,6,2,328,0
25460,6,2,437,0
25461,6,1,502,1
25462,6,2,529,1
25463,6,1,379,1
25464,6,1,383,1
25465,6,1,362,1
25466,6,2,421,1
25467,6,2,327,0
25468,6,1,388,1
25469,6,1,424,1
25470,6,2,322,0
25471,6,1,448,1
25568,6,2,311,1
25569,6,1,269,1
25570,6,2,365,1
25571,6,1,249,1
25572,6,2,266,0
25573,6,1,314,1
25574,6,1,320,1
25575,6,1,278,1
25576,6,2,413,1
25577,6,2,303,1
25578,6,2,374,1
25579,6,1,290,0
25580,6,2,273,0
25581,6,1,305,1
25582,6,2,376,1
25583,6,2,372,1
25584,6,2,351,0
25585,6,2,491,1
25586,6,2,475,1
25587,6,2,451,1
25588,6,1,371,1
25589,6,2,431,1
25590,6,1,505,0
25591,6,1,428,1
25592,6,1,445,1
25593,6,1,462,1
25594,6,1,358,1
25595,6,1,394,1
25596,6,2,477,1
25597,6,1,381,1
25598,6,1,416,1
25599,6,2,362,0
25696,6,2,301,0
25697,6,2,347,1
25698,6,2,304,0
25699,6,1,431,1
25700,6,2,360,0
25701,6,2,532,1
25702,6,2,397,1
25703,6,1,328,1
25704,6,1,413,1
25705,6,1,295,0
25706,6,1,317,1
25707,6,1,331,1
25708,6,2,377,1
25709,6,2,348,0
25710,6,1,409,1
25711,6,1,419,1
25712,6,1,357,1
25713,6,2,410,0
25714,6,2,420,0
25715,6,1,358,1
25716,6,2,491,1
25717,6,1,354,1
25718,6,2,311,0
25719,6,1,413,1
25720,6,2,479,1
25721,6,1,406,1
25722,6,1,377,1
25723,6,1,396,1
25724,6,2,479,1
25725,6,1,358,1
25726,6,2,635,1
25727,6,2,457,1
25824,6,1,411,1
25825,6,1,333,1
25826,6,2,370,0
25827,6,2,382,0
25828,6,2,361,1
25829,6,1,341,1
25830,6,2,403,1
25831,6,1,405,1
25832,6,1,344,1
25833,6,2,349,0
25834,6,2,249,1
25835,6,1,402,1
25836,6,2,413,1
25837,6,2,439,1
25838,6,2,320,0
25839,6,2,510,1
25840,6,1,320,1
25841,6,1,478,0
25842,6,2,430,1
25843,6,2,407,1
25844,6,1,482,1
25845,6,2,361,0
25846,6,1,381,1
25847,6,2,520,1
25848,6,1,427,1
25849,6,1,380,1
25850,6,1,448,1
25851,6,2,520,1
25852,6,1,443,1
25853,6,1,395,1
25854,6,2,518,1
25855,6,1,344,1
25952,6,1,385,1
25953,6,2,372,0
25954,6,1,360,1
25955,6,1,364,1
25956,6,1,360,0
25957,6,2,420,1
25958,6,1,598,1
25959,6,1,381,1
25960,6,2,369,1
25961,6,1,445,1
25962,6,2,541,1
25963,6,1,311,1
25964,6,2,269,1
25965,6,2,269,0
25966,6,1,373,1
25967,6,2,321,1
25968,6,1,222,0
25969,6,1,384,1
25970,6,2,443,1
25971,6,2,284,0
25972,6,2,395,0
25973,6,2,574,1
25974,6,2,494,0
25975,6,2,573,1
25976,6,1,374,1
25977,6,1,394,1
25978,6,2,516,1
25979,6,2,423,1
25980,6,1,377,1
25981,6,1,348,1
25982,6,2,553,1
25983,6,1,394,1
26112,7,2,607,1
26113,7,2,430,1
26114,7,2,311,0
26115,7,1,421,1
26116,7,2,391,0
26117,7,1,395,1
26118,7,2,453,1
26119,7,1,390,1
26120,7,1,337,1
26121,7,1,318,1
26122,7,1,316,1
26123,7,2,370,0
26124,7,1,454,1
26125,7,2,366,1
26126,7,2,354,0
26127,7,2,503,1
26128,7,1,394,1
26129,7,2,477,1
26130,7,1,436,1
26131,7,1,357,1
26132,7,1,346,1
26133,7,2,343,1
26134,7,1,299,0
26135,7,2,530,1
26136,7,1,428,1
26137,7,1,349,1
26138,7,1,274,1
26139,7,2,370,1
26140,7,2,310,0
26141,7,2,508,1
26142,7,2,439,1
26143,7,1,392,1
26240,7,1,448,1
26241,7,2,417,0
26242,7,2,499,1
26243,7,1,402,1
26244,7,1,476,1
26245,7,1,420,1
26246,7,2,526,1
26247,7,1,584,1
26248,7,2,408,1
26249,7,2,386,1
26250,7,2,470,1
26251,7,1,382,1
26252,7,2,481,1
26253,7,2,368,0
26254,7,2,476,1
26255,7,1,436,1
26256,7,2,381,0
26257,7,2,528,1
26258,7,1,402,1
26259,7,2,405,1
26260,7,1,423,1
26261,7,2,489,1
26262,7,2,497,1
26263,7,2,480,1
26264,7,1,447,1
26265,7,1,368,1
26266,7,2,444,1
26267,7,1,444,1
26268,7,1,389,1
26269,7,1,392,1
26270,7,1,380,1
26271,7,1,462,1
26368,7,2,468,0
26369,7,2,492,1
26370,7,1,412,1
26371,7,1,486,1
26372,7,1,581,1
26373,7,1,517,1
26374,7,2,392,0
26375,7,2,467,1
26376,7,1,451,1
26377,7,1,412,1
26378,7,2,590,1
26379,7,1,421,1
26380,7,2,439,1
26381,7,2,360,1
26382,7,2,348,1
26383,7,2,385,0
26384,7,2,460,1
26385,7,2,452,1
26386,7,1,373,1
26387,7,1,449,1
26388,7,2,457,1
26389,7,1,394,1
26390,7,2,357,1
26391,7,2,433,1
26392,7,2,443,1
26393,7,1,355,1
26394,7,1,408,1
26395,7,1,443,1
26396,7,2,547,1
26397,7,1,396,1
26398,7,1,399,1
26399,7,1,426,1
26496,7,1,507,1
26497,7,1,390,1
26498,7,2,497,1
26499,7,1,432,1
26500,7,1,505,1
26501,7,2,413,1
26502,7,2,487,1
26503,7,1,366,1
26504,7,2,386,0
26505,7,1,365,1
26506,7,1,353,1
26507,7,2,502,1
26508,7,1,417,1
26509,7,2,451,0
26510,7,2,468,1
26511,7,1,412,1
26512,7,2,478,1
26513,7,1,381,1
26514,7,1,417,1
26515,7,2,451,1
26516,7,2,547,1
26517,7,2,412,1
26518,7,2,462,1
26519,7,1,366,1
26520,7,2,522,1
26521,7,2,397,1
26522,7,2,375,1
26523,7,1,451,1
26524,7,1,387,1
26525,7,1,335,1
26526,7,1,404,1
26527,7,2,607,1
26624,7,1,337,1
26625,7,1,359,1
26626,7,1,363,1
26627,7,1,375,1
26628,7,1,395,1
26629,7,1,334,1
26630,7,1,347,1
26631,7,2,407,1
26632,7,1,426,1
26633,7,2,427,1
26634,7,2,412,1
26635,7,1,342,1
26636,7,2,380,1
26637,7,2,511,1
26638,7,2,409,1
26639,7,2,275,0
26640,7,2,403,0
26641,7,2,534,1
26642,7,1,408,1
26643,7,2,419,1
26644,7,1,357,1
26645,7,2,481,1
26646,7,1,337,1
26647,7,2,422,1
26648,7,2,568,1
26649,7,1,376,1
26650,7,1,348,1
26651,7,1,368,1
26652,7,1,308,1
26653,7,2,443,1
26654,7,2,364,0
26655,7,2,416,1
26752,7,2,415,1
26753,7,2,489,1
26754,7,1,376,1
26755,7,2,396,1
26756,7,1,398,1
26757,7,1,377,1
26758,7,1,436,1
26759,7,1,478,1
26760,7,2,445,1
26761,7,1,462,1
26762,7,1,406,1
26763,7,1,464,1
26764,7,1,456,1
26765,7,1,441,1
26766,7,1,378,1
26767,7,2,478,1
26768,7,2,653,1
26769,7,2,418,1
26770,7,2,428,1
26771,7,2,406,1
26772,7,2,480,1
26773,7,1,416,1
26774,7,2,410,1
26775,7,2,452,1
26776,7,1,428,1
26777,7,2,382,1
26778,7,2,449,1
26779,7,1,401,1
26780,7,1,339,1
26781,7,2,601,1
26782,7,2,440,1
26783,7,1,433,1
27072,8,1,481,1
27073,8,1,384,1
27074,8,1,419,1
27075,8,1,421,1
27076,8,2,487,0
27077,8,1,359,1
27078,8,2,387,0
27079,8,2,335,0
27080,8,2,484,1
27081,8,2,355,1
27082,8,1,344,1
27083,8,2,341,1
27084,8,1,314,1
27085,8,1,408,1
27086,8,2,387,0
27087,8,2,213,0
27088,8,2,607,1
27089,8,1,358,1
27090,8,2,683,1
27091,8,1,519,1
27092,8,1,329,1
27093,8,2,111,0
27094,8,1,356,0
27095,8,1,393,1
27096,8,2,324,1
27097,8,1,354,1
27098,8,2,342,1
27099,8,2,276,1
27100,8,2,452,1
27101,8,2,532,1
27102,8,1,454,1
27103,8,1,359,1
27200,8,1,513,1
27201,8,1,395,1
27202,8,2,382,0
27203,8,1,441,1
27204,8,2,330,0
27205,8,1,399,0
27206,8,2,330,1
27207,8,2,295,0
27208,8,1,438,1
27209,8,2,431,1
27210,8,1,360,1
27211,8,2,380,1
27212,8,1,344,1
27213,8,2,372,1
27214,8,1,408,1
27215,8,1,395,1
27216,8,2,558,1
27217,8,2,495,1
27218,8,1,309,1
27219,8,2,355,1
27220,8,2,240,0
27221,8,1,217,0
27222,8,2,179,1
27223,8,1,247,0
27224,8,2,335,0
27225,8,2,348,0
27226,8,2,929,1
27227,8,1,419,1
27228,8,1,381,1
27229,8,1,280,1
27230,8,2,328,1
27231,8,1,381,1
27328,8,2,616,1
27329,8,2,398,1
27330,8,2,225,0
27331,8,1,267,1
27332,8,1,363,1
27333,8,2,255,1
27334,8,1,368,0
27335,8,2,436,1
27336,8,1,445,1
27337,8,1,406,1
27338,8,2,624,1
27339,8,2,431,0
27340,8,1,136,0
27341,8,1,149,1
27342,8,1,242,1
27343,8,2,75,1
27344,8,1,411,1
27345,8,2,389,0
27346,8,2,288,0
27347,8,1,184,1
27348,8,2,291,0
27349,8,1,266,1
27350,8,1,354,1
27351,8,1,319,0
27352,8,1,269,0
27353,8,2,341,1
27354,8,2,426,1
27355,8,1,212,1
27356,8,2,182,0
27357,8,2,169,1
27358,8,2,245,1
27359,8,1,222,1
27456,8,2,666,1
27457,8,2,550,1
27458,8,1,383,1
27459,8,2,395,1
27460,8,2,349,0
27461,8,1,394,1
27462,8,1,405,1
27463,8,1,407,1
27464,8,2,306,0
27465,8,1,377,1
27466,8,1,364,1
27467,8,1,640,1
27468,8,1,398,1
27469,8,2,345,1
27470,8,1,357,1
27471,8,2,474,1
27472,8,2,426,1
27473,8,1,404,1
27474,8,1,390,1
27475,8,1,505,1
27476,8,2,396,1
27477,8,2,327,0
27478,8,1,340,1
27479,8,2,345,0
27480,8,2,398,1
27481,8,2,577,1
27482,8,1,369,1
27483,8,2,453,1
27484,8,2,405,1
27485,8,1,360,1
27486,8,2,356,0
27487,8,1,457,1
27584,8,2,508,1
27585,8,1,439,1
27586,8,2,369,0
27587,8,2,491,1
27588,8,2,363,1
27589,8,1,375,1
27590,8,2,403,1
27591,8,1,397,1
27592,8,2,408,1
27593,8,2,371,0
27594,8,1,287,1
27595,8,2,430,1
27596,8,1,367,0
27597,8,2,435,0
27598,8,1,597,1
27599,8,1,476,1
27600,8,2,267,0
27601,8,1,435,1
27602,8,1,421,1
27603,8,1,575,1
27604,8,1,407,1
27605,8,1,306,1
27606,8,2,400,1
27607,8,1,507,1
27608,8,1,438,1
27609,8,2,408,1
27610,8,2,322,0
27611,8,1,504,1
27612,8,2,404,1
27613,8,2,310,0
27614,8,1,356,1
27615,8,2,569,1
27712,8,1,503,1
27713,8,1,362,1
27714,8,1,358,1
27715,8,1,291,0
27716,8,2,474,1
27717,8,2,322,1
27718,8,2,648,1
27719,8,1,413,1
27720,8,1,383,1
27721,8,2,307,0
27722,8,2,465,1
27723,8,2,449,1
27724,8,1,330,1
27725,8,1,415,1
27726,8,2,377,0
27727,8,2,429,1
27728,8,2,342,0
27729,8,1,499,1
27730,8,1,338,1
27731,8,1,415,1
27732,8,2,433,1
27733,8,2,467,1
27734,8,1,443,0
27735,8,1,388,1
27736,8,1,383,1
27737,8,2,323,0
27738,8,2,593,1
27739,8,1,368,1
27740,8,2,396,0
27741,8,2,383,0
27742,8,1,449,1
27743,8,2,274,0
27936,9,1,602,1
27937,9,1,385,1
27938,9,1,268,1
27939,9,1,396,1
27940,9,1,311,1
27941,9,2,405,0
27942,9,2,384,1
27943,9,2,371,0
27944,9,1,447,1
27945,9,1,568,1
27946,9,1,472,0
27947,9,2,328,0
27948,9,2,477,0
27949,9,2,381,1
27950,9,2,536,1
27951,9,2,378,0
27952,9,2,237,1
27953,9,1,87,0
27954,9,1,438,1
27955,9,2,263,1
27956,9,2,231,1
27957,9,1,408,1
27958,9,1,155,1
27959,9,2,184,1
27960,9,2,355,1
27961,9,2,392,1
27962,9,1,355,0
27963,9,2,272,0
27964,9,2,374,1
27965,9,1,378,1
27966,9,1,254,1
27967,9,1,342,0
28064,9,2,325,0
28065,9,2,459,0
28066,9,1,403,1
28067,9,2,150,0
28068,9,2,211,0
28069,9,2,245,1
28070,9,1,141,0
28071,9,2,162,1
28072,9,1,110,1
28073,9,1,212,1
28074,9,2,238,0
28075,9,1,383,1
28076,9,2,315,0
28077,9,1,409,1
28078,9,1,299,0
28079,9,2,458,0
28080,9,1,283,1
28081,9,2,266,0
28082,9,1,362,1
28083,9,1,357,0
28084,9,1,282,0
28085,9,1,249,1
28086,9,2,434,1
28087,9,2,259,1
28088,9,2,411,1
28089,9,1,365,0
28090,9,2,449,0
28091,9,2,378,1
28092,9,1,405,1
28093,9,1,368,1
28094,9,1,364,1
28095,9,2,288,1
28192,9,1,232,0
28193,9,1,505,1
28194,9,1,76,0
28195,9,2,251,0
28196,9,2,276,0
28197,9,1,547,0
28198,9,2,260,1
28199,9,1,236,0
28200,9,2,206,1
28201,9,1,304,0
28202,9,1,103,0
28203,9,2,197,0
28204,9,2,128,0
28205,9,1,149,0
28206,9,1,266,0
28207,9,2,442,0
28208,9,2,235,0
28209,9,1,348,1
28210,9,1,401,1
28211,9,1,252,1
28212,9,2,340,0
28213,9,2,346,0
28214,9,2,62,0
28215,9,2,438,0
28216,9,2,423,1
28217,9,1,377,0
28218,9,1,365,1
28219,9,2,409,0
28220,9,1,435,1
28221,9,2,381,0
28222,9,1,384,1
28223,9,2,443,1
28320,9,1,307,0
28321,9,2,234,1
28322,9,2,179,1
28323,9,1,206,1
28324,9,2,105,1
28325,9,2,207,0
28326,9,2,194,1
28327,9,2,228,0
28328,9,1,182,0
28329,9,1,129,0
28330,9,1,102,1
28331,9,2,365,1
28332,9,1,217,0
28333,9,2,211,0
28334,9,1,413,1
28335,9,2,351,0
28336,9,1,395,1
28337,9,2,166,1
28338,9,1,250,0
28339,9,1,195,0
28340,9,1,413,0
28341,9,1,367,1
28342,9,2,275,1
28343,9,1,307,0
28344,9,2,434,0
28345,9,2,443,1
28346,9,2,564,1
28347,9,1,276,0
28348,9,2,188,0
28349,9,1,167,0
28350,9,2,211,1
28351,9,1,380,1
28448,9,2,500,1
28449,9,1,170,0
28450,9,1,310,1
28451,9,1,172,0
28452,9,2,208,0
28453,9,2,387,1
28454,9,1,30,1
28455,9,2,439,0
28456,9,1,401,0
28457,9,2,211,0
28458,9,1,213,1
28459,9,2,175,1
28460,9,1,291,1
28461,9,2,202,1
28462,9,1,148,0
28463,9,1,88,1
28464,9,1,328,1
28465,9,1,29,1
28466,9,1,214,0
28467,9,1,56,1
28468,9,2,225,0
28469,9,1,107,1
28470,9,2,33,0
28471,9,2,250,0
28472,9,2,179,0
28473,9,1,38,0
28474,9,2,551,0
28475,9,2,233,1
28476,9,2,218,0
28477,9,2,188,0
28478,9,1,167,0
28479,9,2,243,1
28576,9,1,206,1
28577,9,2,233,1
28578,9,2,82,0
