TrialIndex,Subject,Congruence,ResponseTime,Correct
128,1,1,451,1
129,1,2,524,1
130,1,2,399,0
131,1,2,553,1
132,1,2,426,0
133,1,1,628,1
134,1,1,378,1
135,1,1,381,1
136,1,1,360,1
137,1,2,372,0
138,1,2,440,1
139,1,2,418,1
140,1,2,396,1
141,1,2,454,0
142,1,1,439,1
143,1,1,520,1
144,1,2,435,1
145,1,1,412,1
146,1,2,374,0
147,1,1,562,1
148,1,1,363,1
149,1,2,511,1
150,1,2,537,1
151,1,1,515,1
152,1,2,454,1
153,1,1,502,1
154,1,1,482,1
155,1,2,441,1
156,1,2,314,1
157,1,1,432,1
158,1,1,346,1
159,1,1,278,1
256,1,1,373,1
257,1,2,281,0
258,1,2,409,0
259,1,2,507,1
260,1,1,583,1
261,1,2,526,1
262,1,2,472,1
263,1,2,352,0
264,1,1,413,0
265,1,2,383,1
266,1,1,330,1
267,1,1,384,1
268,1,2,347,0
269,1,2,544,1
270,1,1,337,1
271,1,1,326,1
272,1,2,452,1
273,1,2,412,1
274,1,1,470,1
275,1,1,398,1
276,1,2,592,1
277,1,1,448,0
278,1,1,336,1
279,1,2,486,1
280,1,1,461,0
281,1,1,573,1
282,1,2,518,1
283,1,2,504,1
284,1,1,411,0
285,1,1,501,1
286,1,1,473,1
287,1,2,441,1
384,1,1,380,1
385,1,1,383,1
386,1,2,507,1
387,1,2,438,1
388,1,2,439,1
389,1,1,377,1
390,1,2,292,0
391,1,2,363,0
392,1,1,503,0
393,1,1,330,0
394,1,2,424,1
395,1,2,498,1
396,1,2,408,1
397,1,2,451,1
398,1,1,460,0
399,1,1,356,0
400,1,1,432,0
401,1,2,410,1
402,1,1,364,1
403,1,1,472,1
404,1,2,536,1
405,1,2,378,0
406,1,1,373,0
407,1,2,385,1
408,1,2,452,1
409,1,1,517,1
410,1,2,440,1
411,1,1,545,1
412,1,2,458,1
413,1,1,571,1
414,1,1,467,1
415,1,1,411,1
512,1,2,431,1
513,1,2,408,1
514,1,1,467,1
515,1,2,435,1
516,1,1,580,1
517,1,1,388,1
518,1,1,335,1
519,1,1,405,1
520,1,1,359,1
521,1,2,308,0
522,1,1,427,1
523,1,2,508,0
524,1,2,479,1
525,1,2,431,1
526,1,2,448,1
527,1,2,497,1
528,1,1,534,1
529,1,1,400,1
530,1,1,443,0
531,1,1,412,1
532,1,1,494,1
533,1,1,588,1
534,1,2,412,0
535,1,2,462,1
536,1,2,382,0
537,1,1,393,1
538,1,2,436,0
539,1,1,493,1
540,1,1,468,1
541,1,2,388,0
542,1,2,488,1
543,1,2,455,1
640,1,1,552,0
641,1,2,442,1
642,1,2,451,1
643,1,2,419,1
644,1,1,430,0
645,1,1,551,1
646,1,2,400,1
647,1,2,283,1
648,1,1,514,1
649,1,1,365,0
650,1,1,577,1
651,1,2,320,0
652,1,2,502,1
653,1,1,466,1
654,1,1,354,1
655,1,2,470,1
656,1,1,390,0
657,1,2,362,1
658,1,2,414,1
659,1,1,672,1
660,1,2,444,1
661,1,2,453,1
662,1,1,502,1
663,1,2,401,1
664,1,1,387,0
665,1,2,559,1
666,1,1,488,1
667,1,1,351,1
668,1,2,388,0
669,1,1,502,1
670,1,2,410,1
671,1,1,364,1
768,1,2,510,0
769,1,2,392,0
770,1,2,492,1
771,1,1,331,1
772,1,2,400,1
773,1,1,339,1
774,1,1,415,1
775,1,2,337,0
776,1,2,351,0
777,1,1,387,1
778,1,1,391,1
779,1,1,394,1
780,1,1,301,1
781,1,2,491,1
782,1,2,491,1
783,1,1,418,0
784,1,2,348,1
785,1,2,385,1
786,1,2,620,1
787,1,2,442,1
788,1,1,555,1
789,1,2,452,1
790,1,1,549,1
791,1,1,334,1
792,1,1,500,0
793,1,1,442,1
794,1,1,372,1
795,1,1,440,0
796,1,2,425,0
797,1,2,387,0
798,1,1,350,1
799,1,2,315,0
1088,10,1,406,1
1089,10,2,417,1
1090,10,2,395,1
1091,10,2,357,1
1092,10,2,266,0
1093,10,2,210,0
1094,10,1,420,1
1095,10,1,366,1
1096,10,1,378,1
1097,10,1,301,1
1098,10,2,460,1
1099,10,1,428,1
1100,10,2,469,1
1101,10,2,341,1
1102,10,1,290,0
1103,10,1,346,1
1104,10,2,350,1
1105,10,1,331,0
1106,10,1,328,1
1107,10,2,406,1
1108,10,1,335,1
1109,10,2,373,1
1110,10,2,425,1
1111,10,1,467,1
1112,10,2,355,1
1113,10,1,423,1
1114,10,1,441,1
1115,10,2,435,1
1116,10,2,372,1
1117,10,1,416,1
1118,10,1,330,1
1119,10,2,439,1
1216,10,1,486,0
1217,10,2,446,1
1218,10,1,311,1
1219,10,2,388,1
1220,10,2,328,1
1221,10,2,445,1
1222,10,2,334,1
1223,10,1,443,1
1224,10,2,308,1
1225,10,1,426,1
1226,10,1,308,0
1227,10,1,274,1
1228,10,1,474,1
1229,10,2,386,0
1230,10,1,301,1
1231,10,1,332,1
1232,10,1,321,1
1233,10,2,455,1
1234,10,1,296,1
1235,10,2,431,1
1236,10,1,320,1
1237,10,1,414,1
1238,10,2,288,0
1239,10,1,279,0
1240,10,1,374,1
1241,10,2,394,1
1242,10,2,285,1
1243,10,2,220,0
1244,10,2,222,1
1245,10,1,312,1
1246,10,2,294,1
1247,10,2,245,0
1344,10,1,411,1
1345,10,1,333,1
1346,10,1,299,1
1347,10,2,352,1
1348,10,2,373,1
1349,10,1,497,1
1350,10,1,320,1
1351,10,1,309,1
1352,10,1,347,1
1353,10,2,320,1
1354,10,1,510,1
1355,10,1,345,1
1356,10,1,437,1
1357,10,2,311,1
1358,10,1,333,1
1359,10,2,314,1
1360,10,1,280,1
1361,10,1,287,0
1362,10,2,342,0
1363,10,2,324,1
1364,10,2,258,1
1365,10,2,250,0
1366,10,1,235,0
1367,10,2,292,0
1368,10,2,339,1
1369,10,2,249,0
1370,10,1,289,1
1371,10,2,321,1
1372,10,2,271,0
1373,10,1,199,0
1374,10,2,305,1
1375,10,2,192,1
1472,10,2,386,0
1473,10,2,325,1
1474,10,2,539,1
1475,10,1,517,1
1476,10,1,239,0
1477,10,1,353,1
1478,10,1,325,1
1479,10,2,363,1
1480,10,1,287,1
1481,10,2,327,0
1482,10,2,396,1
1483,10,2,359,1
1484,10,2,363,1
1485,10,1,415,0
1486,10,1,393,1
1487,10,2,444,1
1488,10,2,373,1
1489,10,2,289,1
1490,10,2,288,1
1491,10,1,319,1
1492,10,2,285,1
1493,10,2,268,0
1494,10,2,396,1
1495,10,1,423,1
1496,10,1,297,1
1497,10,1,256,1
1498,10,1,240,1
1499,10,1,234,1
1500,10,1,427,1
1501,10,1,292,1
1502,10,2,299,0
1503,10,1,338,1
1600,10,1,505,1
1601,10,2,380,1
1602,10,2,271,0
1603,10,2,287,1
1604,10,1,302,0
1605,10,1,253,1
1606,10,1,310,1
1607,10,2,276,1
1608,10,2,308,1
1609,10,1,306,1
1610,10,2,297,0
1611,10,2,279,1
1612,10,1,399,1
1613,10,2,321,0
1614,10,1,423,1
1615,10,1,401,0
1616,10,2,292,1
1617,10,1,379,0
1618,10,2,367,1
1619,10,1,323,1
1620,10,2,313,1
1621,10,2,319,1
1622,10,1,221,1
1623,10,1,214,0
1624,10,1,432,1
1625,10,1,370,1
1626,10,2,254,0
1627,10,1,358,1
1628,10,2,315,1
1629,10,1,297,0
1630,10,2,320,1
1631,10,2,374,1
1728,10,1,419,1
1729,10,2,285,0
1730,10,2,365,1
1731,10,1,377,1
1732,10,2,388,1
1733,10,2,335,1
1734,10,2,293,1
1735,10,1,332,1
1736,10,2,249,0
1737,10,1,306,1
1738,10,1,328,0
1739,10,2,478,1
1740,10,1,301,1
1741,10,2,332,1
1742,10,1,353,1
1743,10,2,374,1
1744,10,2,418,0
1745,10,1,276,1
1746,10,1,388,1
1747,10,1,295,1
1748,10,2,350,0
1749,10,1,218,0
1750,10,2,388,1
1751,10,1,343,1
1752,10,2,243,0
1753,10,2,364,1
1754,10,2,368,1
1755,10,1,260,1
1756,10,2,300,1
1757,10,1,314,0
1758,10,1,424,1
1759,10,1,290,1
1952,11,2,374,1
1953,11,1,418,0
1954,11,1,372,1
1955,11,2,432,1
1956,11,2,401,1
1957,11,1,372,0
1958,11,2,448,1
1959,11,2,537,1
1960,11,1,371,1
1961,11,1,351,1
1962,11,2,395,1
1963,11,2,526,1
1964,11,1,344,1
1965,11,1,316,1
1966,11,2,378,0
1967,11,1,366,1
1968,11,2,386,0
1969,11,1,405,1
1970,11,2,512,1
1971,11,2,442,1
1972,11,1,420,1
1973,11,1,366,1
1974,11,1,354,1
1975,11,1,398,1
1976,11,2,449,1
1977,11,1,410,1
1978,11,2,444,1
1979,11,1,341,1
1980,11,2,426,1
1981,11,2,500,1
1982,11,1,371,1
1983,11,2,415,1
2080,11,1,385,1
2081,11,2,380,0
2082,11,1,456,1
2083,11,2,440,1
2084,11,2,434,1
2085,11,1,467,1
2086,11,2,459,1
2087,11,1,412,1
2088,11,2,350,1
2089,11,1,322,1
2090,11,1,448,1
2091,11,2,393,1
2092,11,1,300,1
2093,11,1,291,1
2094,11,1,274,1
2095,11,2,490,1
2096,11,2,353,0
2097,11,1,334,1
2098,11,1,371,0
2099,11,1,335,1
2100,11,1,356,1
2101,11,1,392,1
2102,11,2,427,1
2103,11,2,356,0
2104,11,2,553,1
2105,11,2,410,1
2106,11,1,332,1
2107,11,2,370,1
2108,11,1,374,1
2109,11,2,338,1
2110,11,2,415,1
2111,11,2,377,0
2208,11,2,449,1
2209,11,1,378,0
2210,11,1,357,1
2211,11,2,522,1
2212,11,1,371,1
2213,11,1,375,1
2214,11,2,451,1
2215,11,1,292,1
2216,11,2,307,0
2217,11,1,306,1
2218,11,2,328,0
2219,11,2,350,0
2220,11,1,338,1
2221,11,2,368,0
2222,11,2,404,1
2223,11,1,406,1
2224,11,1,361,1
2225,11,2,509,1
2226,11,1,408,1
2227,11,2,403,1
2228,11,2,341,0
2229,11,2,395,0
2230,11,1,389,1
2231,11,1,377,1
2232,11,2,404,1
2233,11,1,383,1
2234,11,1,402,1
2235,11,1,373,1
2236,11,2,473,1
2237,11,2,577,1
2238,11,1,393,0
2239,11,2,372,0
2336,11,1,425,1
2337,11,1,339,1
2338,11,2,328,1
2339,11,2,358,0
2340,11,2,346,1
2341,11,2,439,1
2342,11,1,304,1
2343,11,1,439,0
2344,11,2,488,1
2345,11,2,384,0
2346,11,2,355,1
2347,11,2,384,0
2348,11,1,371,1
2349,11,1,367,1
2350,11,1,331,1
2351,11,1,376,1
2352,11,1,340,1
2353,11,1,321,1
2354,11,1,327,1
2355,11,2,284,0
2356,11,2,507,1
2357,11,2,527,1
2358,11,2,424,1
2359,11,1,306,1
2360,11,2,321,0
2361,11,1,335,1
2362,11,1,316,1
2363,11,2,298,0
2364,11,1,465,1
2365,11,1,393,0
2366,11,2,364,1
2367,11,2,367,1
2464,11,2,313,0
2465,11,1,319,1
2466,11,2,325,1
2467,11,1,331,1
2468,11,2,368,0
2469,11,2,524,1
2470,11,1,303,1
2471,11,2,326,0
2472,11,2,379,0
2473,11,1,335,1
2474,11,1,348,1
2475,11,1,345,1
2476,11,2,404,1
2477,11,2,344,0
2478,11,2,372,1
2479,11,1,320,1
2480,11,1,342,1
2481,11,1,299,1
2482,11,2,338,1
2483,11,2,303,0
2484,11,1,326,1
2485,11,1,276,1
2486,11,2,331,0
2487,11,1,313,1
2488,11,1,303,1
2489,11,2,333,0
2490,11,1,331,1
2491,11,1,360,1
2492,11,2,436,0
2493,11,1,325,1
2494,11,2,387,0
2495,11,2,343,0
2592,11,1,511,1
2593,11,2,385,1
2594,11,2,452,1
2595,11,1,309,1
2596,11,1,323,1
2597,11,2,353,0
2598,11,2,406,1
2599,11,1,408,1
2600,11,1,339,1
2601,11,2,344,0
2602,11,2,565,1
2603,11,2,838,0
2604,11,2,476,1
2605,11,2,428,1
2606,11,2,517,1
2607,11,1,351,0
2608,11,2,380,0
2609,11,2,439,1
2610,11,1,393,1
2611,11,1,315,1
2612,11,2,377,1
2613,11,2,373,1
2614,11,2,361,1
2615,11,1,317,1
2616,11,1,291,1
2617,11,1,322,1
2618,11,1,320,1
2619,11,1,270,1
2620,11,1,318,1
2621,11,2,332,0
2622,11,1,393,1
2623,11,1,372,1
2912,12,1,460,1
2913,12,1,340,1
2914,12,2,377,1
2915,12,1,477,1
2916,12,1,364,1
2917,12,1,360,1
2918,12,1,380,1
2919,12,1,391,1
2920,12,2,451,1
2921,12,2,435,1
2922,12,1,469,1
2923,12,2,509,1
2924,12,2,400,1
2925,12,1,355,1
2926,12,2,407,1
2927,12,2,490,1
2928,12,1,369,1
2929,12,1,389,1
2930,12,2,457,1
2931,12,2,425,1
2932,12,2,443,1
2933,12,1,388,1
2934,12,2,431,1
2935,12,2,513,1
2936,12,2,435,1
2937,12,2,460,1
2938,12,2,435,1
2939,12,1,381,1
2940,12,1,328,1
2941,12,2,405,1
2942,12,1,328,1
2943,12,1,349,1
3040,12,2,446,1
3041,12,1,391,1
3042,12,1,354,1
3043,12,2,494,1
3044,12,1,404,1
3045,12,2,431,1
3046,12,2,360,1
3047,12,1,444,1
3048,12,1,381,1
3049,12,1,352,1
3050,12,1,349,1
3051,12,2,377,0
3052,12,2,485,1
3053,12,2,508,1
3054,12,1,415,1
3055,12,1,369,1
3056,12,1,349,1
3057,12,2,458,1
3058,12,1,403,1
3059,12,2,469,1
3060,12,1,797,0
3061,12,2,477,1
3062,12,2,364,1
3063,12,1,392,1
3064,12,1,355,1
3065,12,2,456,1
3066,12,2,473,1
3067,12,2,401,1
3068,12,1,483,1
3069,12,1,403,1
3070,12,2,509,1
3071,12,2,400,1
3168,12,1,453,1
3169,12,2,358,1
3170,12,2,363,0
3171,12,1,447,1
3172,12,2,439,1
3173,12,1,345,0
3174,12,1,389,1
3175,12,1,288,1
3176,12,2,384,1
3177,12,2,339,1
3178,12,1,296,1
3179,12,1,295,1
3180,12,2,454,1
3181,12,1,318,1
3182,12,1,300,1
3183,12,2,419,1
3184,12,2,413,1
3185,12,2,439,0
3186,12,2,352,1
3187,12,1,317,1
3188,12,1,459,1
3189,12,2,507,1
3190,12,1,399,1
3191,12,1,449,1
3192,12,2,386,1
3193,12,1,357,1
3194,12,2,378,1
3195,12,2,397,1
3196,12,2,472,1
3197,12,2,448,1
3198,12,1,393,1
3199,12,1,595,1
3296,12,2,372,1
3297,12,1,408,1
3298,12,2,411,1
3299,12,1,332,1
3300,12,1,305,1
3301,12,2,296,0
3302,12,2,454,1
3303,12,2,383,1
3304,12,2,482,1
3305,12,1,402,1
3306,12,1,372,1
3307,12,1,392,1
3308,12,1,412,1
3309,12,1,358,1
3310,12,2,482,1
3311,12,2,418,1
3312,12,2,540,1
3313,12,2,445,1
3314,12,1,358,1
3315,12,1,363,1
3316,12,1,351,1
3317,12,1,379,1
3318,12,2,359,1
3319,12,2,491,1
3320,12,1,395,1
3321,12,1,413,1
3322,12,2,383,1
3323,12,2,427,1
3324,12,2,372,1
3325,12,1,376,1
3326,12,1,428,1
3327,12,2,325,0
3424,12,1,417,1
3425,12,2,403,1
3426,12,1,462,1
3427,12,1,350,1
3428,12,1,306,1
3429,12,1,329,1
3430,12,1,302,1
3431,12,1,309,1
3432,12,1,324,1
3433,12,2,346,1
3434,12,1,326,1
3435,12,1,340,1
3436,12,1,313,1
3437,12,2,471,1
3438,12,2,375,0
3439,12,2,483,1
3440,12,1,410,1
3441,12,2,428,1
3442,12,2,405,1
3443,12,1,328,1
3444,12,2,349,1
3445,12,2,362,1
3446,12,2,430,1
3447,12,2,335,1
3448,12,2,445,1
3449,12,2,373,1
3450,12,2,337,1
3451,12,2,359,1
3452,12,2,403,1
3453,12,1,430,1
3454,12,1,335,1
3455,12,1,421,1
3552,12,1,416,1
3553,12,2,386,1
3554,12,1,357,1
3555,12,1,346,1
3556,12,2,391,1
3557,12,1,386,1
3558,12,1,389,1
3559,12,1,392,1
3560,12,1,412,1
3561,12,1,438,1
3562,12,1,391,1
3563,12,2,450,1
3564,12,2,499,1
3565,12,2,410,1
3566,12,2,348,0
3567,12,1,496,1
3568,12,2,383,0
3569,12,2,441,1
3570,12,2,387,1
3571,12,1,406,1
3572,12,2,425,1
3573,12,1,403,1
3574,12,2,437,1
3575,12,1,399,1
3576,12,2,481,1
3577,12,2,433,1
3578,12,2,418,1
3579,12,2,460,1
3580,12,1,564,1
3581,12,1,453,1
3582,12,2,469,1
3583,12,1,421,1
3712,13,2,440,1
3713,13,1,242,1
3714,13,1,235,1
3715,13,1,292,1
3716,13,2,284,0
3717,13,2,419,1
3718,13,1,349,0
3719,13,2,410,1
3720,13,2,267,0
3721,13,1,395,1
3722,13,2,286,0
3723,13,1,357,1
3724,13,2,306,0
3725,13,2,457,1
3726,13,2,249,0
3727,13,1,426,1
3728,13,1,379,1
3729,13,2,295,0
3730,13,1,357,1
3731,13,1,266,1
3732,13,1,274,1
3733,13,2,290,0
3734,13,2,417,1
3735,13,1,371,1
3736,13,2,471,1
3737,13,1,391,1
3738,13,1,338,1
3739,13,2,288,0
3740,13,2,343,1
3741,13,1,148,1
3742,13,1,280,1
3743,13,2,279,0
3840,13,1,357,1
3841,13,1,281,1
3842,13,1,320,1
3843,13,1,390,1
3844,13,2,314,0
3845,13,2,400,1
3846,13,1,290,1
3847,13,1,370,1
3848,13,1,326,1
3849,13,2,476,1
3850,13,1,332,1
3851,13,2,385,1
3852,13,2,348,0
3853,13,2,361,1
3854,13,1,333,1
3855,13,1,362,1
3856,13,1,318,1
3857,13,1,300,1
3858,13,1,291,1
3859,13,1,290,1
3860,13,2,217,0
3861,13,2,387,1
3862,13,2,335,1
3863,13,2,380,1
3864,13,2,495,1
3865,13,1,318,1
3866,13,2,268,0
3867,13,2,364,1
3868,13,2,328,1
3869,13,2,269,1
3870,13,1,317,1
3871,13,2,283,0
3968,13,1,437,1
3969,13,2,215,0
3970,13,2,416,1
3971,13,1,346,1
3972,13,1,279,1
3973,13,1,278,1
3974,13,1,302,1
3975,13,2,260,1
3976,13,1,380,1
3977,13,1,296,1
3978,13,2,286,0
3979,13,1,333,1
3980,13,1,347,1
3981,13,2,287,0
3982,13,1,327,1
3983,13,2,219,0
3984,13,1,318,1
3985,13,2,459,1
3986,13,2,324,1
3987,13,1,345,0
3988,13,2,294,1
3989,13,2,237,1
3990,13,1,414,1
3991,13,2,320,1
3992,13,2,318,1
3993,13,2,332,1
3994,13,2,393,1
3995,13,1,332,1
3996,13,2,457,1
3997,13,1,346,0
3998,13,2,327,1
3999,13,1,420,1
4096,13,2,400,1
4097,13,1,139,1
4098,13,1,279,1
4099,13,1,238,1
4100,13,2,263,0
4101,13,1,207,0
4102,13,1,306,1
4103,13,2,329,0
4104,13,2,526,1
4105,13,1,304,1
4106,13,1,334,1
4107,13,2,228,0
4108,13,1,397,1
4109,13,2,328,0
4110,13,2,357,1
4111,13,1,401,1
4112,13,1,196,0
4113,13,1,351,1
4114,13,1,283,1
4115,13,1,307,1
4116,13,2,353,1
4117,13,2,286,0
4118,13,1,309,1
4119,13,2,827,1
4120,13,2,393,1
4121,13,2,436,1
4122,13,2,389,1
4123,13,1,328,1
4124,13,2,206,0
4125,13,2,368,1
4126,13,1,380,1
4127,13,2,304,0
4224,13,2,267,0
4225,13,2,331,1
4226,13,2,256,1
4227,13,1,353,1
4228,13,1,230,1
4229,13,2,255,0
4230,13,2,360,1
4231,13,1,332,1
4232,13,1,241,1
4233,13,2,418,1
4234,13,1,372,1
4235,13,1,152,1
4236,13,1,205,1
4237,13,2,327,0
4238,13,1,325,0
4239,13,2,291,0
4240,13,2,362,1
4241,13,1,246,0
4242,13,1,366,0
4243,13,2,362,1
4244,13,1,350,1
4245,13,2,331,0
4246,13,2,472,1
4247,13,2,328,1
4248,13,1,310,1
4249,13,1,508,1
4250,13,2,367,1
4251,13,2,291,0
4252,13,1,362,1
4253,13,2,382,1
4254,13,1,337,1
4255,13,1,343,1
4352,13,2,386,1
4353,13,2,205,0
4354,13,1,232,1
4355,13,2,377,1
4356,13,2,252,1
4357,13,1,221,1
4358,13,1,319,1
4359,13,2,189,1
4360,13,2,248,1
4361,13,1,241,1
4362,13,2,202,0
4363,13,1,332,1
4364,13,2,186,0
4365,13,1,285,1
4366,13,2,316,1
4367,13,1,90,1
4368,13,2,337,1
4369,13,1,223,0
4370,13,2,401,1
4371,13,1,163,0
4372,13,2,287,1
4373,13,1,246,1
4374,13,2,199,0
4375,13,1,218,1
4376,13,1,260,1
4377,13,1,628,1
4378,13,1,250,1
4379,13,2,203,0
4380,13,1,269,0
4381,13,2,293,1
4382,13,1,180,1
4383,13,2,103,0
4672,14,1,466,1
4673,14,1,354,1
4674,14,2,534,1
4675,14,2,640,1
4676,14,1,558,1
4677,14,2,471,1
4678,14,1,543,1
4679,14,1,441,1
4680,14,1,466,1
4681,14,1,466,1
4682,14,2,570,1
4683,14,2,498,1
4684,14,2,457,1
4685,14,2,402,1
4686,14,2,436,1
4687,14,2,486,1
4688,14,2,429,1
4689,14,1,543,1
4690,14,1,520,1
4691,14,2,571,1
4692,14,1,563,1
4693,14,1,395,1
4694,14,1,446,1
4695,14,1,574,1
4696,14,1,455,1
4697,14,1,456,1
4698,14,2,608,1
4699,14,2,576,1
4700,14,2,647,1
4701,14,2,589,1
4702,14,2,661,1
4703,14,1,449,1
4800,14,2,535,1
4801,14,2,593,1
4802,14,1,528,1
4803,14,2,570,1
4804,14,1,459,1
4805,14,2,571,1
4806,14,1,508,1
4807,14,1,407,1
4808,14,2,578,1
4809,14,2,378,0
4810,14,1,493,1
4811,14,1,404,1
4812,14,1,431,1
4813,14,1,352,1
4814,14,1,373,1
4815,14,2,537,1
4816,14,1,403,1
4817,14,1,437,1
4818,14,2,743,1
4819,14,1,369,1
4820,14,1,548,1
4821,14,2,525,1
4822,14,1,423,1
4823,14,2,721,1
4824,14,2,484,1
4825,14,2,571,1
4826,14,1,428,0
4827,14,2,637,1
4828,14,1,467,1
4829,14,2,555,1
4830,14,2,420,1
4831,14,2,462,1
4928,14,1,452,1
4929,14,1,413,1
4930,14,1,407,1
4931,14,2,345,0
4932,14,2,574,1
4933,14,1,367,1
4934,14,2,475,1
4935,14,2,427,1
4936,14,1,364,1
4937,14,1,448,1
4938,14,2,529,1
4939,14,2,562,1
4940,14,2,395,1
4941,14,2,374,1
4942,14,1,482,1
4943,14,1,449,1
4944,14,2,610,1
4945,14,1,480,1
4946,14,2,488,1
4947,14,1,663,1
4948,14,2,475,1
4949,14,2,660,1
4950,14,2,584,1
4951,14,1,520,1
4952,14,1,338,1
4953,14,2,567,1
4954,14,1,560,1
4955,14,2,497,1
4956,14,1,631,1
4957,14,1,573,1
4958,14,2,422,1
4959,14,1,472,1
5056,14,1,507,1
5057,14,2,558,1
5058,14,2,600,1
5059,14,2,455,1
5060,14,1,432,1
5061,14,2,585,1
5062,14,2,465,1
5063,14,1,745,1
5064,14,2,594,1
5065,14,1,553,1
5066,14,2,491,1
5067,14,2,626,1
5068,14,1,368,1
5069,14,1,452,1
5070,14,1,549,1
5071,14,2,518,1
5072,14,2,481,1
5073,14,2,496,1
5074,14,1,527,1
5075,14,1,449,1
5076,14,2,448,0
5077,14,2,945,1
5078,14,2,418,1
5079,14,1,508,1
5080,14,2,512,1
5081,14,1,522,1
5082,14,1,589,1
5083,14,1,509,1
5084,14,1,456,1
5085,14,2,609,1
5086,14,1,400,1
5087,14,1,434,1
5184,14,1,387,1
5185,14,2,359,0
5186,14,2,555,1
5187,14,2,532,1
5188,14,2,478,1
5189,14,2,518,1
5190,14,1,392,1
5191,14,1,436,1
5192,14,2,525,1
5193,14,2,543,1
5194,14,2,585,1
5195,14,1,496,1
5196,14,1,591,1
5197,14,2,591,1
5198,14,1,487,1
5199,14,2,518,1
5200,14,1,481,1
5201,14,1,464,1
5202,14,2,624,1
5203,14,1,439,1
5204,14,1,552,1
5205,14,1,457,1
5206,14,1,626,1
5207,14,1,657,1
5208,14,1,805,1
5209,14,1,564,1
5210,14,2,685,1
5211,14,2,529,1
5212,14,2,594,1
5213,14,2,522,1
5214,14,2,540,1
5215,14,1,518,1
5312,14,2,526,1
5313,14,2,440,1
5314,14,1,393,1
5315,14,1,396,1
5316,14,1,487,1
5317,14,2,470,0
5318,14,1,398,1
5319,14,2,505,1
5320,14,2,644,1
5321,14,2,553,1
5322,14,1,482,1
5323,14,1,386,1
5324,14,1,509,1
5325,14,1,472,1
5326,14,2,832,1
5327,14,2,622,1
5328,14,1,485,1
5329,14,2,564,1
5330,14,1,517,1
5331,14,1,455,1
5332,14,1,576,1
5333,14,1,664,1
5334,14,2,653,1
5335,14,2,409,1
5336,14,2,587,1
5337,14,2,523,1
5338,14,1,502,1
5339,14,1,449,1
5340,14,2,546,1
5341,14,2,451,1
5342,14,2,603,1
5343,14,1,531,1
5536,15,1,512,1
5537,15,1,402,1
5538,15,2,525,1
5539,15,1,407,1
5540,15,1,626,1
5541,15,2,488,1
5542,15,2,511,1
5543,15,1,482,1
5544,15,2,601,1
5545,15,2,440,1
5546,15,1,554,1
5547,15,2,459,1
5548,15,1,468,1
5549,15,2,340,0
5550,15,1,577,1
5551,15,2,417,1
5552,15,1,363,1
5553,15,2,343,0
5554,15,2,467,1
5555,15,2,379,1
5556,15,1,503,1
5557,15,2,402,1
5558,15,2,349,1
5559,15,2,385,1
5560,15,1,413,0
5561,15,2,455,1
5562,15,1,383,1
5563,15,1,435,1
5564,15,1,356,1
5565,15,1,329,1
5566,15,2,422,1
5567,15,1,360,1
5664,15,2,564,1
5665,15,1,389,1
5666,15,1,376,1
5667,15,1,492,1
5668,15,1,338,1
5669,15,1,376,1
5670,15,1,388,1
5671,15,2,351,0
5672,15,2,524,1
5673,15,2,430,1
5674,15,2,391,1
5675,15,1,387,1
5676,15,2,390,1
5677,15,2,513,1
5678,15,1,412,1
5679,15,2,406,1
5680,15,1,409,1
5681,15,2,379,1
5682,15,2,398,1
5683,15,2,329,1
5684,15,1,422,1
5685,15,1,408,1
5686,15,1,419,1
5687,15,1,541,1
5688,15,1,527,1
5689,15,1,473,1
5690,15,2,385,1
5691,15,2,532,1
5692,15,2,390,1
5693,15,1,377,1
5694,15,2,381,1
5695,15,2,376,1
5792,15,2,583,1
5793,15,1,391,1
5794,15,2,498,1
5795,15,1,441,1
5796,15,2,434,1
5797,15,2,363,1
5798,15,2,343,1
5799,15,1,348,1
5800,15,2,465,1
5801,15,2,473,1
5802,15,1,353,1
5803,15,1,445,0
5804,15,2,406,1
5805,15,1,465,1
5806,15,2,401,1
5807,15,1,427,1
5808,15,1,381,1
5809,15,1,344,1
5810,15,2,404,1
5811,15,1,455,1
5812,15,1,392,1
5813,15,2,411,1
5814,15,2,397,1
5815,15,1,376,1
5816,15,2,388,1
5817,15,2,439,1
5818,15,2,440,1
5819,15,1,362,1
5820,15,1,366,1
5821,15,2,370,1
5822,15,1,445,1
5823,15,1,341,1
5920,15,2,648,1
5921,15,1,326,1
5922,15,1,444,1
5923,15,2,388,1
5924,15,1,432,1
5925,15,1,417,1
5926,15,1,307,1
5927,15,2,418,1
5928,15,1,292,1
5929,15,1,467,1
5930,15,2,419,1
5931,15,2,445,1
5932,15,1,374,1
5933,15,1,378,1
5934,15,2,333,1
5935,15,1,394,1
5936,15,2,437,1
5937,15,2,566,1
5938,15,1,423,1
5939,15,1,425,1
5940,15,2,387,1
5941,15,2,366,1
5942,15,2,330,1
5943,15,2,335,1
5944,15,1,421,1
5945,15,1,319,1
5946,15,2,445,1
5947,15,2,413,1
5948,15,2,423,1
5949,15,2,329,1
5950,15,1,391,0
5951,15,1,354,1
6048,15,2,531,1
6049,15,2,380,1
6050,15,2,352,1
6051,15,1,428,1
6052,15,1,342,0
6053,15,1,395,0
6054,15,2,373,1
6055,15,2,441,1
6056,15,1,491,1
6057,15,2,346,1
6058,15,1,391,1
6059,15,1,402,1
6060,15,2,413,1
6061,15,2,423,1
6062,15,2,337,1
6063,15,1,446,1
6064,15,1,487,1
6065,15,1,414,1
6066,15,1,432,1
6067,15,1,385,1
6068,15,2,437,1
6069,15,2,390,1
6070,15,1,321,1
6071,15,2,351,0
6072,15,2,444,1
6073,15,2,405,1
6074,15,2,407,1
6075,15,1,378,1
6076,15,2,357,1
6077,15,1,378,1
6078,15,1,317,1
6079,15,1,307,1
6176,15,2,535,1
6177,15,2,425,1
6178,15,1,459,1
6179,15,2,380,1
6180,15,2,479,1
6181,15,1,367,1
6182,15,1,787,1
6183,15,1,435,1
6184,15,1,292,1
6185,15,2,419,1
6186,15,2,437,1
6187,15,1,431,0
6188,15,1,488,1
6189,15,1,367,1
6190,15,2,387,1
6191,15,1,367,1
6192,15,2,443,1
6193,15,1,428,0
6194,15,2,469,1
6195,15,1,477,1
6196,15,2,421,1
6197,15,1,415,1
6198,15,2,344,1
6199,15,1,452,0
6200,15,1,437,1
6201,15,1,334,1
6202,15,1,380,1
6203,15,2,295,0
6204,15,2,373,1
6205,15,2,377,1
6206,15,2,397,1
6207,15,2,519,1
6496,16,2,442,1
6497,16,1,411,1
6498,16,1,268,1
6499,16,1,300,1
6500,16,1,378,1
6501,16,2,334,0
6502,16,2,475,1
6503,16,2,403,1
6504,16,1,414,1
6505,16,1,376,1
6506,16,1,323,1
6507,16,2,281,0
6508,16,2,400,1
6509,16,2,291,1
6510,16,2,418,1
6511,16,1,332,1
6512,16,1,266,1
6513,16,1,273,1
6514,16,1,329,1
6515,16,1,255,1
6516,16,2,407,1
6517,16,1,570,1
6518,16,2,443,1
6519,16,2,259,1
6520,16,2,323,1
6521,16,2,345,1
6522,16,1,286,0
6523,16,2,509,1
6524,16,1,368,1
6525,16,2,276,0
6526,16,1,364,0
6527,16,2,351,1
6624,16,1,435,1
6625,16,2,324,0
6626,16,1,314,0
6627,16,1,472,1
6628,16,2,384,1
6629,16,2,419,0
6630,16,1,357,1
6631,16,2,410,1
6632,16,1,348,1
6633,16,2,392,1
6634,16,2,396,1
6635,16,1,558,1
6636,16,2,359,1
6637,16,1,275,1
6638,16,1,355,1
6639,16,2,216,0
6640,16,1,418,1
6641,16,2,420,1
6642,16,2,278,1
6643,16,1,413,0
6644,16,2,367,1
6645,16,1,419,1
6646,16,1,309,1
6647,16,2,356,0
6648,16,2,360,0
6649,16,2,284,1
6650,16,1,380,1
6651,16,1,343,1
6652,16,2,459,1
6653,16,1,451,0
6654,16,1,452,1
6655,16,2,453,1
6752,16,1,333,1
6753,16,2,266,0
6754,16,2,490,1
6755,16,2,242,1
6756,16,2,347,1
6757,16,2,263,1
6758,16,1,351,0
6759,16,2,364,1
6760,16,1,256,0
6761,16,2,417,1
6762,16,2,395,1
6763,16,1,597,1
6764,16,1,365,1
6765,16,1,312,1
6766,16,1,278,1
6767,16,1,302,1
6768,16,1,236,1
6769,16,1,230,1
6770,16,2,511,1
6771,16,1,465,1
6772,16,1,273,1
6773,16,2,305,0
6774,16,2,360,0
6775,16,2,412,1
6776,16,1,406,1
6777,16,2,273,0
6778,16,2,353,1
6779,16,1,277,0
6780,16,2,573,1
6781,16,2,397,1
6782,16,1,408,0
6783,16,1,370,1
6880,16,2,455,1
6881,16,1,344,0
6882,16,2,356,0
6883,16,1,393,1
6884,16,2,348,1
6885,16,1,320,1
6886,16,2,478,1
6887,16,2,342,1
6888,16,1,371,1
6889,16,1,319,1
6890,16,1,309,1
6891,16,2,251,0
6892,16,1,324,1
6893,16,2,418,1
6894,16,1,404,1
6895,16,1,351,1
6896,16,1,267,1
6897,16,2,371,1
6898,16,2,343,0
6899,16,1,284,1
6900,16,2,291,0
6901,16,2,298,0
6902,16,2,441,1
6903,16,1,322,1
6904,16,1,328,1
6905,16,2,446,1
6906,16,2,390,1
6907,16,1,434,1
6908,16,1,315,1
6909,16,2,297,0
6910,16,1,424,1
6911,16,2,354,1
7008,16,2,542,1
7009,16,2,344,1
7010,16,2,285,0
7011,16,2,300,0
7012,16,1,458,1
7013,16,2,347,1
7014,16,1,288,1
7015,16,1,263,1
7016,16,2,439,1
7017,16,2,448,1
7018,16,2,401,1
7019,16,1,444,0
7020,16,1,380,1
7021,16,1,352,1
7022,16,1,308,1
7023,16,1,283,1
7024,16,2,377,1
7025,16,2,381,1
7026,16,2,368,1
7027,16,2,340,1
7028,16,2,281,1
7029,16,1,264,1
7030,16,2,288,1
7031,16,1,248,1
7032,16,1,368,1
7033,16,1,292,1
7034,16,1,307,1
7035,16,1,250,1
7036,16,2,267,1
7037,16,1,275,1
7038,16,1,283,1
7039,16,2,242,0
7136,16,2,387,1
7137,16,1,358,1
7138,16,1,235,1
7139,16,2,276,0
7140,16,2,324,1
7141,16,1,370,1
7142,16,2,206,1
7143,16,2,336,1
7144,16,1,446,1
7145,16,2,454,1
7146,16,1,263,0
7147,16,1,319,1
7148,16,2,365,1
7149,16,2,393,1
7150,16,1,292,0
7151,16,2,427,1
7152,16,1,293,1
7153,16,2,276,0
7154,16,1,276,1
7155,16,1,196,1
7156,16,1,239,1
7157,16,1,288,1
7158,16,1,271,1
7159,16,2,255,0
7160,16,2,224,0
7161,16,1,242,0
7162,16,1,467,1
7163,16,2,298,1
7164,16,2,352,1
7165,16,2,341,1
7166,16,2,258,1
7167,16,1,315,0
7296,17,2,481,1
7297,17,2,345,1
7298,17,1,397,1
7299,17,1,328,1
7300,17,1,413,1
7301,17,2,471,1
7302,17,2,415,1
7303,17,2,441,1
7304,17,1,507,1
7305,17,1,438,1
7306,17,1,383,1
7307,17,1,347,1
7308,17,2,391,1
7309,17,2,299,0
7310,17,2,393,1
7311,17,1,340,1
7312,17,1,313,1
7313,17,2,383,1
7314,17,1,290,1
7315,17,2,386,1
7316,17,2,389,1
7317,17,1,344,1
7318,17,2,349,1
7319,17,1,378,1
7320,17,1,301,0
7321,17,2,372,0
7322,17,1,504,1
7323,17,2,419,1
7324,17,1,285,1
7325,17,1,324,1
7326,17,2,410,1
7327,17,2,364,1
7424,17,1,417,0
7425,17,1,403,1
7426,17,1,261,1
7427,17,2,317,0
7428,17,1,395,1
7429,17,2,350,1
7430,17,2,338,1
7431,17,1,408,1
7432,17,2,386,1
7433,17,1,358,1
7434,17,2,394,1
7435,17,2,341,1
7436,17,2,386,1
7437,17,1,422,1
7438,17,1,448,1
7439,17,2,431,1
7440,17,1,329,1
7441,17,2,382,1
7442,17,2,385,1
7443,17,2,317,1
7444,17,2,363,1
7445,17,2,367,1
7446,17,1,403,1
7447,17,2,245,0
7448,17,1,462,1
7449,17,1,310,1
7450,17,2,348,1
7451,17,1,280,1
7452,17,2,312,1
7453,17,1,286,1
7454,17,1,389,1
7455,17,1,344,1
7552,17,2,690,1
7553,17,1,293,1
7554,17,2,316,1
7555,17,2,290,1
7556,17,1,361,0
7557,17,1,509,1
7558,17,1,384,1
7559,17,2,331,1
7560,17,1,272,1
7561,17,2,272,0
7562,17,1,280,1
7563,17,2,360,0
7564,17,1,396,0
7565,17,2,454,1
7566,17,1,319,1
7567,17,2,277,1
7568,17,1,316,1
7569,17,2,290,0
7570,17,2,321,0
7571,17,1,471,1
7572,17,1,295,1
7573,17,2,358,1
7574,17,1,339,0
7575,17,1,312,1
7576,17,2,382,1
7577,17,2,401,1
7578,17,1,388,1
7579,17,2,143,1
7580,17,2,364,1
7581,17,2,360,1
7582,17,1,396,1
7583,17,1,286,1
7680,17,2,402,1
7681,17,2,333,1
7682,17,1,378,1
7683,17,2,374,1
7684,17,1,338,0
7685,17,2,271,0
7686,17,1,351,0
7687,17,1,308,1
7688,17,1,194,1
7689,17,1,316,1
7690,17,1,322,1
7691,17,2,472,1
7692,17,1,336,1
7693,17,2,381,0
7694,17,2,360,1
7695,17,1,364,1
7696,17,1,256,1
7697,17,2,265,0
7698,17,2,393,1
7699,17,2,220,1
7700,17,2,365,1
7701,17,1,345,1
7702,17,2,214,0
7703,17,2,272,0
7704,17,2,400,1
7705,17,1,307,1
7706,17,2,361,1
7707,17,1,341,1
7708,17,1,299,1
7709,17,1,297,1
7710,17,1,344,1
7711,17,2,340,1
7808,17,1,445,1
7809,17,2,318,1
7810,17,1,308,1
7811,17,2,371,1
7812,17,2,279,0
7813,17,1,350,1
7814,17,1,347,1
7815,17,1,327,1
7816,17,1,421,0
7817,17,2,335,1
7818,17,2,260,0
7819,17,2,292,0
7820,17,2,315,1
7821,17,1,297,1
7822,17,2,344,1
7823,17,1,348,1
7824,17,1,281,1
7825,17,2,296,0
7826,17,1,295,1
7827,17,2,286,1
7828,17,1,333,1
7829,17,1,330,1
7830,17,2,303,0
7831,17,1,326,1
7832,17,1,324,1
7833,17,2,290,0
7834,17,2,209,0
7835,17,1,276,1
7836,17,2,308,0
7837,17,2,322,1
7838,17,1,248,0
7839,17,2,425,1
7936,17,1,321,1
7937,17,1,247,1
7938,17,1,280,1
7939,17,2,255,0
7940,17,2,408,1
7941,17,2,259,1
7942,17,2,251,1
7943,17,1,348,1
7944,17,2,232,1
7945,17,2,258,0
7946,17,1,346,0
7947,17,1,287,1
7948,17,1,238,1
7949,17,2,255,0
7950,17,2,328,1
7951,17,2,309,1
7952,17,2,260,1
7953,17,1,356,1
7954,17,1,257,1
7955,17,2,361,1
7956,17,2,341,1
7957,17,1,355,1
7958,17,1,295,1
7959,17,2,254,0
7960,17,1,230,1
7961,17,2,215,0
7962,17,1,289,0
7963,17,2,304,0
7964,17,1,206,1
7965,17,2,217,0
7966,17,1,331,1
7967,17,1,272,1
8256,18,1,537,1
8257,18,1,347,1
8258,18,1,360,1
8259,18,2,364,1
8260,18,1,320,1
8261,18,2,310,1
8262,18,2,260,0
8263,18,1,284,1
8264,18,1,299,1
8265,18,2,369,1
8266,18,1,397,1
8267,18,1,359,1
8268,18,2,275,1
8269,18,2,395,1
8270,18,2,262,0
8271,18,1,334,1
8272,18,2,291,0
8273,18,1,371,1
8274,18,2,422,1
8275,18,1,320,1
8276,18,1,414,1
8277,18,2,472,1
8278,18,1,376,1
8279,18,2,412,1
8280,18,1,494,1
8281,18,2,452,1
8282,18,2,405,1
8283,18,1,392,1
8284,18,2,395,1
8285,18,2,366,0
8286,18,1,322,1
8287,18,2,360,1
8384,18,1,392,1
8385,18,1,315,1
8386,18,2,377,1
8387,18,2,325,1
8388,18,1,363,1
8389,18,2,462,1
8390,18,2,399,1
8391,18,1,345,1
8392,18,1,390,1
8393,18,2,449,1
8394,18,2,354,1
8395,18,1,462,0
8396,18,1,422,1
8397,18,2,456,1
8398,18,2,497,1
8399,18,2,472,1
8400,18,1,320,0
8401,18,2,390,1
8402,18,2,425,1
8403,18,2,419,1
8404,18,1,461,1
8405,18,1,333,1
8406,18,1,410,1
8407,18,1,428,1
8408,18,2,406,1
8409,18,2,360,1
8410,18,1,348,1
8411,18,1,353,1
8412,18,2,454,1
8413,18,2,422,1
8414,18,1,408,1
8415,18,1,387,1
8512,18,2,391,1
8513,18,2,307,1
8514,18,2,257,0
8515,18,1,386,1
8516,18,1,301,1
8517,18,1,260,0
8518,18,1,308,1
8519,18,2,379,1
8520,18,2,366,1
8521,18,2,282,1
8522,18,2,201,1
8523,18,1,332,1
8524,18,1,281,0
8525,18,2,384,1
8526,18,2,356,1
8527,18,1,384,1
8528,18,1,292,1
8529,18,1,315,1
8530,18,1,329,1
8531,18,2,294,1
8532,18,2,309,0
8533,18,1,315,1
8534,18,2,377,1
8535,18,1,317,1
8536,18,1,299,0
8537,18,2,313,1
8538,18,2,335,1
8539,18,2,300,1
8540,18,1,355,0
8541,18,1,312,1
8542,18,1,302,1
8543,18,2,508,1
8640,18,2,455,1
8641,18,1,336,1
8642,18,2,341,1
8643,18,2,282,1
8644,18,1,402,1
8645,18,1,260,1
8646,18,1,276,1
8647,18,1,268,1
8648,18,2,324,0
8649,18,1,378,1
8650,18,2,397,1
8651,18,2,248,1
8652,18,2,665,1
8653,18,1,317,1
8654,18,2,347,0
8655,18,2,304,0
8656,18,2,310,1
8657,18,2,300,1
8658,18,1,355,0
8659,18,2,408,1
8660,18,2,306,1
8661,18,1,337,1
8662,18,2,278,1
8663,18,2,293,1
8664,18,1,307,0
8665,18,1,450,1
8666,18,2,514,1
8667,18,1,325,1
8668,18,1,307,1
8669,18,1,266,1
8670,18,1,297,1
8671,18,1,272,1
8768,18,1,446,1
8769,18,2,478,1
8770,18,2,286,0
8771,18,1,301,1
8772,18,1,260,1
8773,18,2,356,0
8774,18,1,360,1
8775,18,1,292,1
8776,18,2,428,1
8777,18,2,317,0
8778,18,2,235,0
8779,18,2,396,1
8780,18,2,319,0
8781,18,1,389,0
8782,18,2,456,1
8783,18,1,353,1
8784,18,1,309,1
8785,18,2,339,1
8786,18,2,329,1
8787,18,1,326,1
8788,18,2,332,0
8789,18,1,425,1
8790,18,2,379,1
8791,18,1,382,1
8792,18,1,298,1
8793,18,2,416,1
8794,18,2,322,1
8795,18,1,456,1
8796,18,1,449,1
8797,18,1,338,1
8798,18,1,391,1
8799,18,2,354,0
8896,18,1,337,1
8897,18,2,383,1
8898,18,2,354,1
8899,18,1,327,1
8900,18,1,372,0
8901,18,1,320,1
8902,18,1,294,1
8903,18,1,364,1
8904,18,1,296,1
8905,18,1,367,1
8906,18,2,435,1
8907,18,1,364,1
8908,18,2,384,1
8909,18,1,412,1
8910,18,2,318,0
8911,18,2,340,1
8912,18,1,353,1
8913,18,2,365,1
8914,18,2,377,1
8915,18,2,309,1
8916,18,2,643,1
8917,18,2,321,1
8918,18,1,391,1
8919,18,1,210,1
8920,18,2,236,1
8921,18,2,293,0
8922,18,2,324,1
8923,18,1,338,1
8924,18,1,367,1
8925,18,1,307,1
8926,18,2,258,0
8927,18,2,274,0
9120,19,2,369,1
9121,19,2,277,0
9122,19,2,300,1
9123,19,1,315,0
9124,19,2,297,1
9125,19,2,223,0
9126,19,2,233,0
9127,19,2,330,1
9128,19,2,280,0
9129,19,1,295,1
9130,19,2,318,1
9131,19,2,244,0
9132,19,1,404,1
9133,19,1,367,1
9134,19,2,419,1
9135,19,1,293,1
9136,19,1,372,1
9137,19,1,304,1
9138,19,1,375,1
9139,19,1,267,1
9140,19,2,387,1
9141,19,1,366,1
9142,19,1,306,1
9143,19,2,328,1
9144,19,1,366,1
9145,19,2,353,1
9146,19,1,405,1
9147,19,2,328,1
9148,19,1,349,1
9149,19,1,346,1
9150,19,1,287,1
9151,19,2,438,1
9248,19,2,559,1
9249,19,2,424,1
9250,19,2,282,1
9251,19,1,338,1
9252,19,1,311,1
9253,19,2,341,0
9254,19,1,386,1
9255,19,1,350,1
9256,19,2,314,0
9257,19,1,311,0
9258,19,1,309,1
9259,19,1,355,1
9260,19,2,392,1
9261,19,2,363,1
9262,19,2,343,1
9263,19,2,332,1
9264,19,1,305,1
9265,19,1,304,1
9266,19,1,366,1
9267,19,1,450,1
9268,19,2,379,1
9269,19,2,382,0
9270,19,1,441,1
9271,19,2,323,1
9272,19,2,401,1
9273,19,2,331,0
9274,19,1,305,1
9275,19,1,295,1
9276,19,1,334,1
9277,19,2,267,0
9278,19,2,307,1
9279,19,1,338,1
9376,19,2,319,0
9377,19,2,309,1
9378,19,1,243,1
9379,19,2,164,1
9380,19,1,240,1
9381,19,2,329,1
9382,19,2,807,1
9383,19,1,374,1
9384,19,2,306,1
9385,19,1,304,1
9386,19,2,303,1
9387,19,2,326,1
9388,19,2,356,1
9389,19,2,384,1
9390,19,2,540,1
9391,19,2,309,1
9392,19,1,267,0
9393,19,2,275,1
9394,19,1,235,1
9395,19,1,277,1
9396,19,1,284,1
9397,19,1,307,1
9398,19,1,322,1
9399,19,1,272,1
9400,19,1,288,1
9401,19,1,303,1
9402,19,2,278,0
9403,19,2,413,1
9404,19,1,343,0
9405,19,1,356,1
9406,19,1,464,1
9407,19,2,368,1
9504,19,1,372,1
9505,19,1,304,1
9506,19,2,503,1
9507,19,2,370,1
9508,19,2,318,1
9509,19,1,316,1
9510,19,1,378,1
9511,19,1,245,1
9512,19,2,526,1
9513,19,1,441,1
9514,19,2,314,0
9515,19,2,288,0
9516,19,1,327,1
9517,19,2,308,0
9518,19,2,411,1
9519,19,1,437,1
9520,19,2,342,0
9521,19,1,428,1
9522,19,2,541,1
9523,19,2,351,1
9524,19,1,380,1
9525,19,1,295,1
9526,19,2,325,1
9527,19,2,315,1
9528,19,2,313,1
9529,19,1,303,1
9530,19,1,390,1
9531,19,1,409,1
9532,19,1,308,1
9533,19,1,363,1
9534,19,2,310,1
9535,19,2,316,1
9632,19,2,364,0
9633,19,1,392,1
9634,19,2,316,0
9635,19,2,538,1
9636,19,2,419,1
9637,19,2,493,1
9638,19,2,428,1
9639,19,1,293,1
9640,19,2,316,1
9641,19,1,298,1
9642,19,1,297,1
9643,19,2,327,1
9644,19,2,301,0
9645,19,1,347,1
9646,19,2,360,1
9647,19,2,292,1
9648,19,1,347,1
9649,19,1,344,1
9650,19,1,283,1
9651,19,1,291,1
9652,19,1,322,0
9653,19,2,336,0
9654,19,1,325,1
9655,19,2,331,0
9656,19,1,401,1
9657,19,2,307,1
9658,19,2,394,0
9659,19,1,348,1
9660,19,1,433,0
9661,19,1,362,1
9662,19,1,374,1
9663,19,2,330,1
9760,19,1,343,1
9761,19,2,379,1
9762,19,1,255,1
9763,19,1,295,1
9764,19,1,254,0
9765,19,2,287,1
9766,19,1,294,1
9767,19,2,244,0
9768,19,1,317,1
9769,19,2,259,1
9770,19,2,299,0
9771,19,1,258,0
9772,19,2,298,0
9773,19,1,417,1
9774,19,1,315,1
9775,19,1,345,0
9776,19,2,333,1
9777,19,2,363,1
9778,19,1,303,1
9779,19,1,333,1
9780,19,2,267,0
9781,19,2,307,1
9782,19,1,305,1
9783,19,2,232,1
9784,19,2,321,1
9785,19,2,287,1
9786,19,2,326,1
9787,19,2,308,1
9788,19,1,250,1
9789,19,1,267,1
9790,19,2,267,0
9791,19,1,283,1
10048,2,2,434,1
10049,2,2,403,1
10050,2,1,318,1
10051,2,1,308,1
10052,2,1,299,1
10053,2,1,369,0
10054,2,2,405,1
10055,2,2,320,1
10056,2,1,342,0
10057,2,2,347,1
10058,2,2,392,1
10059,2,1,443,1
10060,2,2,404,1
10061,2,1,302,1
10062,2,2,413,1
10063,2,2,367,1
10064,2,2,347,1
10065,2,1,488,1
10066,2,2,359,1
10067,2,2,348,1
10068,2,2,304,1
10069,2,1,359,0
10070,2,1,332,1
10071,2,2,369,1
10072,2,1,317,1
10073,2,1,307,0
10074,2,1,306,1
10075,2,1,400,1
10076,2,2,379,1
10077,2,1,350,1
10078,2,1,267,1
10079,2,2,314,1
10176,2,2,444,1
10177,2,1,316,1
10178,2,2,290,1
10179,2,1,370,1
10180,2,2,462,1
10181,2,2,334,1
10182,2,2,267,1
10183,2,2,403,1
10184,2,2,294,1
10185,2,2,284,1
10186,2,1,428,1
10187,2,1,293,1
10188,2,2,404,1
10189,2,1,391,1
10190,2,2,370,1
10191,2,1,326,0
10192,2,2,372,1
10193,2,1,336,0
10194,2,1,349,1
10195,2,1,418,1
10196,2,2,324,0
10197,2,2,417,1
10198,2,1,435,1
10199,2,1,412,1
10200,2,2,406,1
10201,2,1,409,1
10202,2,2,403,1
10203,2,1,334,0
10204,2,1,331,1
10205,2,2,392,1
10206,2,1,340,1
10207,2,1,321,1
10304,2,2,330,1
10305,2,2,480,1
10306,2,1,335,0
10307,2,2,420,1
10308,2,1,302,0
10309,2,1,437,0
10310,2,1,438,1
10311,2,2,384,1
10312,2,2,403,1
10313,2,1,358,1
10314,2,2,434,1
10315,2,1,364,1
10316,2,2,304,1
10317,2,2,310,1
10318,2,1,387,1
10319,2,2,318,1
10320,2,1,356,1
10321,2,1,313,1
10322,2,2,359,1
10323,2,1,507,1
10324,2,2,366,1
10325,2,1,450,1
10326,2,2,419,1
10327,2,2,349,0
10328,2,1,258,1
10329,2,1,322,1
10330,2,1,288,1
10331,2,2,279,0
10332,2,2,359,1
10333,2,1,283,1
10334,2,1,251,1
10335,2,2,339,1
10432,2,2,301,0
10433,2,2,388,1
10434,2,1,423,1
10435,2,2,297,1
10436,2,2,392,1
10437,2,2,379,1
10438,2,2,342,1
10439,2,1,380,0
10440,2,2,375,1
10441,2,1,387,1
10442,2,1,334,1
10443,2,1,308,1
10444,2,2,434,1
10445,2,2,268,1
10446,2,1,292,1
10447,2,1,387,1
10448,2,2,414,1
10449,2,2,312,1
10450,2,1,326,0
10451,2,1,276,1
10452,2,2,388,1
10453,2,1,375,1
10454,2,2,235,0
10455,2,2,341,1
10456,2,2,418,1
10457,2,1,444,1
10458,2,1,357,1
10459,2,1,321,1
10460,2,1,295,1
10461,2,1,261,1
10462,2,2,301,1
10463,2,1,315,1
10560,2,2,403,1
10561,2,1,294,1
10562,2,1,277,0
10563,2,2,404,1
10564,2,2,351,1
10565,2,1,275,1
10566,2,2,243,0
10567,2,1,380,0
10568,2,1,279,1
10569,2,2,335,0
10570,2,1,380,1
10571,2,2,295,1
10572,2,1,262,1
10573,2,1,278,1
10574,2,2,237,1
10575,2,1,302,1
10576,2,2,229,0
10577,2,1,390,0
10578,2,2,298,0
10579,2,1,368,1
10580,2,2,355,1
10581,2,2,400,1
10582,2,1,362,0
10583,2,2,358,1
10584,2,2,363,1
10585,2,2,391,1
10586,2,2,410,1
10587,2,1,452,1
10588,2,1,381,1
10589,2,1,424,1
10590,2,2,450,1
10591,2,1,467,1
10688,2,1,353,1
10689,2,1,454,1
10690,2,2,303,1
10691,2,1,261,1
10692,2,2,261,1
10693,2,2,293,0
10694,2,1,268,0
10695,2,2,292,1
10696,2,2,275,1
10697,2,1,290,0
10698,2,1,329,0
10699,2,2,287,1
10700,2,1,382,1
10701,2,1,353,0
10702,2,2,342,1
10703,2,2,331,1
10704,2,2,328,1
10705,2,1,350,0
10706,2,2,314,1
10707,2,2,312,1
10708,2,1,310,0
10709,2,1,404,1
10710,2,1,319,1
10711,2,2,365,0
10712,2,2,385,1
10713,2,1,348,1
10714,2,1,361,1
10715,2,2,525,1
10716,2,2,319,1
10717,2,1,349,1
10718,2,1,314,1
10719,2,2,248,0
10976,20,1,493,1
10977,20,2,428,1
10978,20,1,365,1
10979,20,1,417,1
10980,20,1,323,1
10981,20,2,433,1
10982,20,2,347,1
10983,20,2,391,1
10984,20,2,451,1
10985,20,2,443,1
10986,20,1,388,1
10987,20,1,359,1
10988,20,2,459,1
10989,20,2,419,1
10990,20,2,437,1
10991,20,2,407,1
10992,20,1,409,1
10993,20,1,348,1
10994,20,1,401,1
10995,20,2,363,1
10996,20,1,375,1
10997,20,1,347,1
10998,20,1,352,1
10999,20,2,437,1
11000,20,1,374,1
11001,20,1,330,1
11002,20,1,311,1
11003,20,2,373,1
11004,20,2,393,1
11005,20,2,308,1
11006,20,2,322,1
11007,20,1,440,1
11104,20,1,466,1
11105,20,2,402,1
11106,20,2,332,1
11107,20,1,354,0
11108,20,1,342,1
11109,20,1,300,1
11110,20,1,418,1
11111,20,1,316,1
11112,20,1,298,1
11113,20,1,377,1
11114,20,1,340,1
11115,20,2,369,1
11116,20,1,301,1
11117,20,2,308,1
11118,20,2,323,1
11119,20,2,417,1
11120,20,2,339,1
11121,20,1,360,1
11122,20,1,292,1
11123,20,1,251,1
11124,20,2,276,1
11125,20,2,364,1
11126,20,2,360,1
11127,20,2,292,1
11128,20,1,396,1
11129,20,1,326,1
11130,20,1,292,1
11131,20,2,275,0
11132,20,2,338,1
11133,20,2,328,1
11134,20,2,357,1
11135,20,2,322,1
11232,20,1,503,1
11233,20,2,321,0
11234,20,1,344,0
11235,20,1,652,1
11236,20,1,369,1
11237,20,2,373,1
11238,20,2,361,1
11239,20,1,325,1
11240,20,2,347,1
11241,20,2,440,1
11242,20,1,337,1
11243,20,1,518,1
11244,20,2,385,1
11245,20,2,324,1
11246,20,2,306,1
11247,20,2,329,0
11248,20,1,342,1
11249,20,2,267,0
11250,20,1,595,1
11251,20,1,347,1
11252,20,1,327,1
11253,20,2,445,1
11254,20,2,421,1
11255,20,2,399,1
11256,20,2,458,1
11257,20,1,435,1
11258,20,1,340,1
11259,20,1,321,1
11260,20,2,375,1
11261,20,1,307,1
11262,20,1,370,1
11263,20,2,350,1
11360,20,1,480,1
11361,20,2,391,1
11362,20,2,395,1
11363,20,1,437,1
11364,20,1,319,1
11365,20,2,413,1
11366,20,1,415,1
11367,20,2,337,0
11368,20,2,446,1
11369,20,2,455,1
11370,20,1,471,1
11371,20,2,415,1
11372,20,2,321,1
11373,20,1,295,1
11374,20,2,398,1
11375,20,2,385,1
11376,20,1,356,1
11377,20,2,384,1
11378,20,1,260,1
11379,20,1,316,1
11380,20,2,330,1
11381,20,2,407,1
11382,20,2,354,1
11383,20,1,390,1
11384,20,1,298,1
11385,20,2,240,0
11386,20,1,353,1
11387,20,1,414,0
11388,20,1,480,1
11389,20,1,303,1
11390,20,2,438,1
11391,20,1,335,1
11488,20,1,440,1
11489,20,1,361,1
11490,20,2,357,1
11491,20,1,330,1
11492,20,1,343,1
11493,20,2,372,1
11494,20,1,280,1
11495,20,2,287,1
11496,20,1,334,1
11497,20,1,323,1
11498,20,1,265,1
11499,20,2,289,0
11500,20,1,225,1
11501,20,2,227,0
11502,20,2,396,1
11503,20,2,278,1
11504,20,2,318,1
11505,20,2,332,1
11506,20,1,337,0
11507,20,2,294,1
11508,20,1,341,1
11509,20,1,258,1
11510,20,2,387,1
11511,20,2,318,1
11512,20,1,300,1
11513,20,1,291,1
11514,20,1,306,1
11515,20,2,385,1
11516,20,1,196,1
11517,20,2,279,0
11518,20,2,301,0
11519,20,2,379,1
11616,20,1,310,1
11617,20,2,420,1
11618,20,1,406,1
11619,20,1,313,1
11620,20,2,359,1
11621,20,1,356,1
11622,20,2,352,1
11623,20,1,413,1
11624,20,1,495,1
11625,20,1,302,1
11626,20,1,340,1
11627,20,2,344,1
11628,20,1,366,1
11629,20,2,385,1
11630,20,2,292,1
11631,20,2,379,1
11632,20,2,262,0
11633,20,1,310,1
11634,20,1,284,1
11635,20,1,291,1
11636,20,2,291,0
11637,20,1,362,1
11638,20,2,214,0
11639,20,2,424,1
11640,20,2,330,1
11641,20,1,295,1
11642,20,1,302,1
11643,20,2,317,1
11644,20,2,266,1
11645,20,2,362,0
11646,20,1,254,1
11647,20,2,295,0
11776,21,1,644,1
11777,21,1,409,1
11778,21,2,508,1
11779,21,2,455,1
11780,21,1,423,1
11781,21,1,402,1
11782,21,1,460,1
11783,21,1,364,1
11784,21,2,496,1
11785,21,2,415,1
11786,21,2,401,1
11787,21,1,339,1
11788,21,1,489,1
11789,21,1,368,1
11790,21,1,284,1
11791,21,2,251,0
11792,21,2,636,1
11793,21,2,650,1
11794,21,1,351,1
11795,21,1,412,1
11796,21,1,349,1
11797,21,2,513,1
11798,21,2,492,1
11799,21,2,403,1
11800,21,2,462,1
11801,21,2,406,1
11802,21,1,465,1
11803,21,1,417,1
11804,21,1,291,1
11805,21,2,442,1
11806,21,2,379,1
11807,21,2,407,1
11904,21,1,510,1
11905,21,2,449,1
11906,21,2,425,1
11907,21,2,411,1
11908,21,2,389,1
11909,21,2,433,1
11910,21,1,418,1
11911,21,1,348,1
11912,21,1,345,1
11913,21,1,349,1
11914,21,2,490,1
11915,21,2,513,1
11916,21,2,524,1
11917,21,2,390,1
11918,21,1,458,1
11919,21,1,378,1
11920,21,1,350,1
11921,21,1,234,1
11922,21,1,363,1
11923,21,1,303,1
11924,21,1,310,1
11925,21,1,412,1
11926,21,2,334,0
11927,21,2,587,0
11928,21,2,475,1
11929,21,2,451,1
11930,21,2,460,1
11931,21,1,404,1
11932,21,2,519,1
11933,21,1,481,1
11934,21,1,488,1
11935,21,2,480,1
12032,21,1,463,1
12033,21,2,511,1
12034,21,1,386,1
12035,21,1,413,1
12036,21,2,479,1
12037,21,1,358,1
12038,21,1,395,1
12039,21,1,422,1
12040,21,2,368,0
12041,21,1,388,1
12042,21,1,391,1
12043,21,2,522,1
12044,21,2,493,1
12045,21,1,443,1
12046,21,2,404,1
12047,21,1,343,1
12048,21,2,403,1
12049,21,2,398,1
12050,21,2,265,1
12051,21,2,393,1
12052,21,2,347,1
12053,21,2,392,1
12054,21,1,379,1
12055,21,2,415,1
12056,21,1,417,1
12057,21,1,411,1
12058,21,2,269,0
12059,21,1,517,0
12060,21,2,543,1
12061,21,1,512,1
12062,21,2,395,1
12063,21,1,437,0
12160,21,2,461,1
12161,21,1,429,0
12162,21,2,542,1
12163,21,1,584,1
12164,21,2,480,1
12165,21,1,439,1
12166,21,1,337,1
12167,21,2,446,1
12168,21,2,319,1
12169,21,2,477,1
12170,21,2,388,1
12171,21,1,391,1
12172,21,2,427,1
12173,21,1,460,1
12174,21,2,412,1
12175,21,2,350,1
12176,21,1,578,1
12177,21,1,474,1
12178,21,1,386,1
12179,21,2,253,0
12180,21,1,366,1
12181,21,2,394,0
12182,21,2,380,1
12183,21,1,344,1
12184,21,1,340,1
12185,21,2,385,1
12186,21,1,357,1
12187,21,2,409,1
12188,21,1,443,1
12189,21,2,396,1
12190,21,1,359,1
12191,21,1,299,1
12288,21,2,390,1
12289,21,2,369,1
12290,21,1,397,1
12291,21,1,400,1
12292,21,1,371,1
12293,21,1,415,0
12294,21,1,497,1
12295,21,2,463,1
12296,21,2,407,1
12297,21,2,370,1
12298,21,1,406,1
12299,21,2,345,0
12300,21,1,637,1
12301,21,2,411,1
12302,21,1,429,1
12303,21,2,350,0
12304,21,1,411,1
12305,21,1,373,1
12306,21,2,441,1
12307,21,2,386,1
12308,21,1,462,1
12309,21,2,454,1
12310,21,2,406,1
12311,21,2,417,1
12312,21,2,395,1
12313,21,1,454,1
12314,21,2,350,1
12315,21,1,427,1
12316,21,2,324,1
12317,21,1,450,1
12318,21,1,283,1
12319,21,1,378,1
12416,21,2,402,1
12417,21,1,373,1
12418,21,2,321,1
12419,21,1,311,1
12420,21,1,365,1
12421,21,1,432,1
12422,21,2,362,0
12423,21,2,494,1
12424,21,2,429,1
12425,21,2,382,1
12426,21,2,345,1
12427,21,1,374,1
12428,21,1,330,1
12429,21,1,327,1
12430,21,1,420,1
12431,21,1,342,1
12432,21,1,308,1
12433,21,2,241,0
12434,21,2,443,1
12435,21,2,427,1
12436,21,1,357,1
12437,21,1,313,1
12438,21,1,303,1
12439,21,1,334,1
12440,21,2,427,1
12441,21,2,380,1
12442,21,1,600,1
12443,21,2,415,1
12444,21,2,353,1
12445,21,2,342,1
12446,21,2,339,1
12447,21,1,576,1
12736,22,2,382,1
12737,22,1,369,1
12738,22,2,301,0
12739,22,2,364,1
12740,22,1,464,1
12741,22,1,336,1
12742,22,2,341,0
12743,22,2,395,0
12744,22,2,461,1
12745,22,1,389,1
12746,22,2,401,1
12747,22,1,339,1
12748,22,2,329,1
12749,22,1,326,0
12750,22,1,324,1
12751,22,2,386,0
12752,22,1,469,1
12753,22,1,373,1
12754,22,2,417,1
12755,22,1,475,0
12756,22,1,387,1
12757,22,1,318,1
12758,22,1,396,1
12759,22,2,487,1
12760,22,2,342,1
12761,22,2,324,1
12762,22,1,314,0
12763,22,2,376,1
12764,22,2,316,1
12765,22,2,298,0
12766,22,1,336,1
12767,22,1,293,1
12864,22,2,434,1
12865,22,1,395,0
12866,22,1,366,1
12867,22,2,386,1
12868,22,2,373,1
12869,22,1,409,0
12870,22,2,332,0
12871,22,2,449,1
12872,22,2,322,1
12873,22,1,456,1
12874,22,1,392,1
12875,22,1,180,0
12876,22,2,319,1
12877,22,2,309,1
12878,22,2,308,1
12879,22,2,330,1
12880,22,1,319,1
12881,22,2,229,0
12882,22,1,359,1
12883,22,2,387,1
12884,22,1,399,1
12885,22,1,281,1
12886,22,2,281,0
12887,22,2,336,0
12888,22,1,357,1
12889,22,1,258,1
12890,22,2,378,1
12891,22,1,350,1
12892,22,1,330,1
12893,22,1,280,1
12894,22,1,263,1
12895,22,2,311,0
12992,22,1,391,0
12993,22,1,370,1
12994,22,1,366,1
12995,22,1,298,1
12996,22,2,272,0
12997,22,2,344,1
12998,22,1,341,1
12999,22,2,330,0
13000,22,2,376,1
13001,22,1,268,1
13002,22,1,364,1
13003,22,1,392,1
13004,22,1,315,1
13005,22,2,297,0
13006,22,2,446,1
13007,22,2,295,0
13008,22,1,518,1
13009,22,1,296,1
13010,22,2,375,1
13011,22,2,379,1
13012,22,2,422,1
13013,22,1,632,1
13014,22,2,326,1
13015,22,2,363,1
13016,22,2,359,1
13017,22,2,323,1
13018,22,1,385,1
13019,22,2,357,1
13020,22,1,361,0
13021,22,2,325,0
13022,22,1,451,0
13023,22,1,332,1
13120,22,2,501,1
13121,22,2,360,1
13122,22,1,404,1
13123,22,1,351,1
13124,22,1,387,1
13125,22,1,231,1
13126,22,2,248,1
13127,22,1,361,1
13128,22,2,309,0
13129,22,2,371,0
13130,22,1,351,1
13131,22,1,300,1
13132,22,1,322,1
13133,22,2,472,1
13134,22,1,352,0
13135,22,2,429,1
13136,22,2,342,1
13137,22,1,412,1
13138,22,2,862,1
13139,22,1,394,1
13140,22,2,517,1
13141,22,2,359,1
13142,22,1,348,0
13143,22,2,280,1
13144,22,2,343,1
13145,22,1,412,1
13146,22,2,390,1
13147,22,1,225,1
13148,22,1,323,1
13149,22,2,321,1
13150,22,1,287,1
13151,22,2,279,0
13248,22,1,528,1
13249,22,1,370,1
13250,22,2,390,1
13251,22,1,297,1
13252,22,2,280,0
13253,22,1,303,1
13254,22,2,310,0
13255,22,2,332,1
13256,22,1,321,1
13257,22,1,615,1
13258,22,1,342,1
13259,22,1,267,1
13260,22,2,259,0
13261,22,1,500,1
13262,22,2,450,1
13263,22,1,307,1
13264,22,1,250,1
13265,22,1,266,1
13266,22,1,290,1
13267,22,2,377,1
13268,22,2,285,1
13269,22,2,332,1
13270,22,2,329,1
13271,22,2,287,1
13272,22,1,246,1
13273,22,2,295,0
13274,22,2,365,1
13275,22,2,265,0
13276,22,2,425,1
13277,22,1,259,1
13278,22,1,268,1
13279,22,2,556,1
13376,22,1,377,1
13377,22,1,357,1
13378,22,2,465,1
13379,22,1,417,0
13380,22,1,395,1
13381,22,1,302,1
13382,22,2,469,1
13383,22,2,341,1
13384,22,2,314,1
13385,22,1,336,1
13386,22,2,349,1
13387,22,2,402,1
13388,22,2,541,1
13389,22,1,342,1
13390,22,1,283,1
13391,22,2,242,0
13392,22,1,371,1
13393,22,2,287,0
13394,22,1,271,1
13395,22,1,366,1
13396,22,1,354,1
13397,22,1,391,1
13398,22,2,418,1
13399,22,2,396,1
13400,22,2,367,1
13401,22,2,331,1
13402,22,1,360,0
13403,22,2,388,1
13404,22,2,352,1
13405,22,1,300,1
13406,22,2,267,0
13407,22,1,395,1
13600,23,1,586,1
13601,23,2,442,1
13602,23,1,348,1
13603,23,2,328,1
13604,23,1,270,0
13605,23,1,286,1
13606,23,1,253,1
13607,23,2,429,1
13608,23,2,239,0
13609,23,2,344,1
13610,23,1,365,1
13611,23,2,329,1
13612,23,2,406,1
13613,23,2,265,1
13614,23,1,361,1
13615,23,2,405,1
13616,23,1,239,1
13617,23,1,304,1
13618,23,1,255,1
13619,23,2,272,1
13620,23,2,272,1
13621,23,1,232,1
13622,23,1,313,1
13623,23,2,279,1
13624,23,1,246,1
13625,23,1,263,1
13626,23,2,255,0
13627,23,1,239,1
13628,23,2,265,1
13629,23,2,201,0
13630,23,2,307,1
13631,23,1,282,1
13728,23,2,551,1
13729,23,1,352,0
13730,23,2,412,1
13731,23,2,294,1
13732,23,2,333,1
13733,23,1,282,0
13734,23,1,234,1
13735,23,1,251,0
13736,23,2,307,1
13737,23,1,306,0
13738,23,2,633,1
13739,23,2,319,1
13740,23,1,301,1
13741,23,2,283,1
13742,23,1,291,0
13743,23,1,274,1
13744,23,2,258,0
13745,23,2,338,1
13746,23,1,360,1
13747,23,1,244,1
13748,23,1,181,1
13749,23,1,231,1
13750,23,1,240,1
13751,23,2,274,0
13752,23,2,426,1
13753,23,1,443,1
13754,23,2,292,1
13755,23,1,323,1
13756,23,2,217,0
13757,23,2,275,0
13758,23,1,211,0
13759,23,2,373,0
13856,23,1,477,1
13857,23,2,316,1
13858,23,2,282,1
13859,23,1,353,1
13860,23,1,398,1
13861,23,2,289,1
13862,23,2,280,0
13863,23,1,271,1
13864,23,1,247,1
13865,23,2,464,1
13866,23,1,280,1
13867,23,1,255,0
13868,23,1,216,0
13869,23,1,354,1
13870,23,2,398,1
13871,23,1,273,0
13872,23,2,433,1
13873,23,2,274,1
13874,23,2,258,1
13875,23,2,347,1
13876,23,1,319,1
13877,23,1,325,1
13878,23,1,299,0
13879,23,2,378,1
13880,23,2,325,1
13881,23,1,291,0
13882,23,2,354,1
13883,23,1,471,1
13884,23,2,383,1
13885,23,2,378,1
13886,23,1,294,1
13887,23,2,404,1
13984,23,1,441,1
13985,23,2,274,0
13986,23,1,338,1
13987,23,2,296,1
13988,23,2,286,1
13989,23,1,302,1
13990,23,2,348,1
13991,23,1,353,0
13992,23,2,421,1
13993,23,1,399,1
13994,23,1,274,1
13995,23,1,306,1
13996,23,1,281,1
13997,23,2,272,1
13998,23,1,320,0
13999,23,1,366,1
14000,23,2,338,1
14001,23,2,335,1
14002,23,2,420,1
14003,23,2,358,1
14004,23,2,307,1
14005,23,2,418,1
14006,23,1,364,1
14007,23,2,384,1
14008,23,2,323,1
14009,23,1,329,1
14010,23,1,350,1
14011,23,1,283,0
14012,23,2,378,1
14013,23,1,318,1
14014,23,1,323,1
14015,23,2,361,1
14112,23,1,405,1
14113,23,1,272,1
14114,23,2,384,0
14115,23,1,371,1
14116,23,2,279,0
14117,23,1,334,1
14118,23,2,387,0
14119,23,1,399,1
14120,23,2,257,0
14121,23,2,410,1
14122,23,1,452,1
14123,23,1,333,0
14124,23,1,290,1
14125,23,1,321,1
14126,23,2,463,1
14127,23,1,399,1
14128,23,1,290,1
14129,23,1,313,1
14130,23,2,303,1
14131,23,2,294,0
14132,23,2,332,1
14133,23,2,369,1
14134,23,1,389,1
14135,23,1,296,1
14136,23,2,399,1
14137,23,2,345,1
14138,23,2,350,1
14139,23,1,427,1
14140,23,1,316,1
14141,23,2,506,1
14142,23,2,389,1
14143,23,2,336,1
14240,23,1,434,1
14241,23,2,482,1
14242,23,1,370,0
14243,23,1,534,1
14244,23,2,424,1
14245,23,1,386,1
14246,23,1,325,1
14247,23,2,395,1
14248,23,2,333,1
14249,23,2,347,1
14250,23,2,439,1
14251,23,2,369,1
14252,23,1,293,1
14253,23,2,659,1
14254,23,2,384,1
14255,23,2,459,1
14256,23,2,387,1
14257,23,2,287,1
14258,23,1,286,0
14259,23,2,349,1
14260,23,1,402,1
14261,23,2,348,1
14262,23,1,377,0
14263,23,2,476,1
14264,23,1,652,1
14265,23,1,353,1
14266,23,1,390,1
14267,23,1,385,1
14268,23,1,292,1
14269,23,1,316,1
14270,23,1,330,1
14271,23,2,367,1
14560,24,1,387,1
14561,24,1,407,1
14562,24,2,385,1
14563,24,2,381,1
14564,24,2,408,1
14565,24,1,363,1
14566,24,1,343,1
14567,24,2,404,1
14568,24,2,399,1
14569,24,2,409,1
14570,24,1,396,1
14571,24,1,391,1
14572,24,2,282,0
14573,24,1,321,1
14574,24,2,423,1
14575,24,1,401,0
14576,24,2,372,1
14577,24,1,392,1
14578,24,2,411,1
14579,24,1,277,0
14580,24,1,356,1
14581,24,1,297,0
14582,24,1,408,1
14583,24,2,330,0
14584,24,2,320,0
14585,24,1,454,1
14586,24,1,501,1
14587,24,1,376,1
14588,24,2,420,1
14589,24,2,382,0
14590,24,2,417,1
14591,24,2,323,1
14688,24,1,391,1
14689,24,1,626,1
14690,24,1,304,1
14691,24,1,382,1
14692,24,1,338,1
14693,24,2,359,0
14694,24,2,300,0
14695,24,1,394,1
14696,24,1,317,1
14697,24,2,419,0
14698,24,2,269,0
14699,24,2,373,0
14700,24,2,465,1
14701,24,2,377,1
14702,24,1,476,1
14703,24,1,315,1
14704,24,2,345,0
14705,24,1,622,1
14706,24,2,621,1
14707,24,1,395,0
14708,24,2,510,1
14709,24,1,392,1
14710,24,2,380,1
14711,24,2,399,1
14712,24,2,370,1
14713,24,1,358,1
14714,24,1,354,1
14715,24,1,511,1
14716,24,2,433,1
14717,24,1,387,1
14718,24,2,406,1
14719,24,2,401,0
14816,24,1,260,1
14817,24,2,412,1
14818,24,1,334,1
14819,24,2,451,1
14820,24,2,396,1
14821,24,1,342,1
14822,24,1,284,1
14823,24,2,291,1
14824,24,2,386,1
14825,24,1,342,1
14826,24,2,315,1
14827,24,2,329,1
14828,24,1,422,1
14829,24,1,344,1
14830,24,1,373,1
14831,24,1,384,1
14832,24,1,211,1
14833,24,1,253,0
14834,24,2,406,1
14835,24,1,448,1
14836,24,2,409,1
14837,24,2,347,1
14838,24,1,400,1
14839,24,2,458,1
14840,24,1,291,1
14841,24,2,386,1
14842,24,1,389,1
14843,24,2,369,1
14844,24,2,301,1
14845,24,2,363,1
14846,24,1,247,1
14847,24,2,336,1
14944,24,1,356,1
14945,24,2,481,1
14946,24,1,344,1
14947,24,2,309,1
14948,24,1,259,1
14949,24,2,195,0
14950,24,2,326,1
14951,24,1,340,1
14952,24,2,377,1
14953,24,1,436,1
14954,24,2,374,0
14955,24,1,338,1
14956,24,2,383,1
14957,24,2,226,0
14958,24,1,275,1
14959,24,1,443,1
14960,24,2,356,0
14961,24,1,305,1
14962,24,2,327,1
14963,24,2,301,1
14964,24,1,339,1
14965,24,1,409,1
14966,24,2,283,1
14967,24,2,499,1
14968,24,2,537,1
14969,24,1,755,1
14970,24,2,324,1
14971,24,1,210,1
14972,24,2,244,0
14973,24,1,229,1
14974,24,1,334,0
14975,24,1,267,1
15072,24,1,277,1
15073,24,2,276,1
15074,24,2,356,1
15075,24,2,248,0
15076,24,1,481,1
15077,24,1,1216,1
15078,24,1,287,1
15079,24,1,246,1
15080,24,1,319,1
15081,24,2,301,0
15082,24,1,299,1
15083,24,2,498,1
15084,24,2,305,0
15085,24,2,287,0
15086,24,1,279,0
15087,24,2,430,1
15088,24,2,383,1
15089,24,1,363,0
15090,24,1,319,1
15091,24,1,389,1
15092,24,2,336,1
15093,24,2,461,1
15094,24,1,445,1
15095,24,1,302,0
15096,24,2,397,1
15097,24,1,351,1
15098,24,2,316,1
15099,24,1,322,1
15100,24,2,336,1
15101,24,1,381,0
15102,24,2,431,1
15103,24,2,345,1
15200,24,1,276,1
15201,24,2,372,1
15202,24,2,224,0
15203,24,1,338,1
15204,24,1,391,1
15205,24,1,290,1
15206,24,1,345,1
15207,24,2,486,1
15208,24,1,445,1
15209,24,1,446,1
15210,24,2,455,1
15211,24,2,344,1
15212,24,1,308,0
15213,24,2,387,1
15214,24,1,334,1
15215,24,2,451,1
15216,24,1,308,1
15217,24,1,323,0
15218,24,2,305,1
15219,24,1,287,1
15220,24,2,447,1
15221,24,2,375,1
15222,24,1,323,1
15223,24,2,305,1
15224,24,1,240,0
15225,24,2,337,0
15226,24,2,334,0
15227,24,2,308,0
15228,24,1,370,1
15229,24,2,198,0
15230,24,2,281,0
15231,24,1,264,1
15360,25,2,353,1
15361,25,1,333,0
15362,25,2,379,1
15363,25,1,334,1
15364,25,2,315,1
15365,25,2,385,1
15366,25,1,340,1
15367,25,1,345,1
15368,25,2,342,1
15369,25,1,331,1
15370,25,1,320,1
15371,25,1,302,1
15372,25,1,309,1
15373,25,2,379,1
15374,25,2,311,1
15375,25,1,301,1
15376,25,1,275,1
15377,25,1,323,1
15378,25,2,313,0
15379,25,1,311,1
15380,25,2,309,1
15381,25,1,291,0
15382,25,1,490,0
15383,25,2,314,0
15384,25,2,360,1
15385,25,1,324,1
15386,25,2,306,1
15387,25,2,320,1
15388,25,2,374,1
15389,25,2,330,1
15390,25,1,327,0
15391,25,2,437,1
15488,25,1,315,1
15489,25,1,313,1
15490,25,2,255,1
15491,25,2,336,1
15492,25,2,261,1
15493,25,2,349,1
15494,25,2,290,1
15495,25,2,321,1
15496,25,2,303,1
15497,25,1,302,0
15498,25,2,372,1
15499,25,1,328,1
15500,25,1,310,1
15501,25,1,356,1
15502,25,2,272,1
15503,25,1,328,1
15504,25,1,342,1
15505,25,2,331,1
15506,25,2,352,1
15507,25,1,309,1
15508,25,1,315,1
15509,25,2,353,1
15510,25,2,278,1
15511,25,1,325,1
15512,25,1,315,1
15513,25,1,281,1
15514,25,2,256,1
15515,25,2,345,1
15516,25,1,302,1
15517,25,1,332,1
15518,25,2,346,0
15519,25,1,254,1
15616,25,1,397,1
15617,25,1,279,1
15618,25,2,399,1
15619,25,1,337,1
15620,25,1,335,1
15621,25,1,292,1
15622,25,2,323,1
15623,25,2,249,1
15624,25,1,338,1
15625,25,2,359,1
15626,25,2,260,1
15627,25,2,356,1
15628,25,2,304,1
15629,25,2,247,1
15630,25,1,352,1
15631,25,1,244,0
15632,25,2,581,1
15633,25,2,333,1
15634,25,1,298,1
15635,25,1,321,1
15636,25,1,447,0
15637,25,1,303,1
15638,25,2,334,1
15639,25,1,315,0
15640,25,2,289,0
15641,25,2,328,1
15642,25,2,278,1
15643,25,2,253,1
15644,25,1,286,0
15645,25,2,277,1
15646,25,1,292,1
15647,25,1,307,1
15744,25,2,341,1
15745,25,2,283,1
15746,25,1,370,1
15747,25,1,350,1
15748,25,2,370,1
15749,25,1,358,1
15750,25,2,339,1
15751,25,1,304,1
15752,25,2,327,1
15753,25,2,276,1
15754,25,2,300,1
15755,25,1,347,1
15756,25,2,391,1
15757,25,1,339,1
15758,25,1,296,1
15759,25,2,303,1
15760,25,1,268,1
15761,25,2,332,1
15762,25,1,298,1
15763,25,1,336,1
15764,25,1,262,0
15765,25,2,245,0
15766,25,1,238,1
15767,25,2,263,1
15768,25,2,367,1
15769,25,1,243,1
15770,25,1,308,0
15771,25,1,291,1
15772,25,2,370,1
15773,25,2,278,1
15774,25,1,317,1
15775,25,2,331,1
15872,25,1,415,1
15873,25,1,345,1
15874,25,1,341,1
15875,25,1,314,1
15876,25,2,328,0
15877,25,2,382,1
15878,25,2,353,1
15879,25,2,318,1
15880,25,2,380,1
15881,25,2,287,1
15882,25,1,302,1
15883,25,1,277,0
15884,25,2,292,1
15885,25,2,291,1
15886,25,1,307,1
15887,25,1,529,1
15888,25,1,275,1
15889,25,2,259,0
15890,25,1,331,0
15891,25,2,368,1
15892,25,2,356,1
15893,25,2,353,1
15894,25,1,294,1
15895,25,2,380,1
15896,25,2,296,1
15897,25,1,326,1
15898,25,1,292,1
15899,25,2,275,0
15900,25,1,243,1
15901,25,1,291,1
15902,25,1,291,1
15903,25,2,258,0
16000,25,1,313,1
16001,25,2,375,1
16002,25,2,283,1
16003,25,2,307,1
16004,25,2,273,1
16005,25,2,297,0
16006,25,2,336,1
16007,25,1,453,1
16008,25,1,286,1
16009,25,2,325,1
16010,25,1,291,0
16011,25,2,394,1
16012,25,2,253,1
16013,25,1,318,1
16014,25,2,244,0
16015,25,1,316,0
16016,25,1,306,1
16017,25,2,257,0
16018,25,1,361,1
16019,25,2,341,1
16020,25,2,299,1
16021,25,1,249,1
16022,25,2,330,1
16023,25,1,287,1
16024,25,1,366,1
16025,25,2,346,0
16026,25,1,279,1
16027,25,1,318,1
16028,25,1,220,1
16029,25,1,254,1
16030,25,1,319,1
16031,25,2,421,1
16320,26,2,516,1
16321,26,2,407,1
16322,26,2,385,1
16323,26,2,413,1
16324,26,2,407,1
16325,26,2,361,1
16326,26,1,364,0
16327,26,2,680,1
16328,26,1,428,1
16329,26,2,502,1
16330,26,1,345,1
16331,26,2,390,0
16332,26,1,441,1
16333,26,1,546,1
16334,26,2,331,1
16335,26,1,393,1
16336,26,1,371,1
16337,26,2,375,0
16338,26,1,323,1
16339,26,2,321,0
16340,26,1,335,1
16341,26,1,333,1
16342,26,1,386,1
16343,26,2,293,0
16344,26,1,268,1
16345,26,1,332,1
16346,26,2,361,0
16347,26,1,349,1
16348,26,2,394,1
16349,26,1,316,1
16350,26,1,298,1
16351,26,2,233,0
16448,26,1,412,1
16449,26,1,334,1
16450,26,2,348,0
16451,26,2,336,1
16452,26,1,806,1
16453,26,1,405,1
16454,26,2,416,1
16455,26,2,442,1
16456,26,1,307,1
16457,26,2,330,0
16458,26,2,279,0
16459,26,1,286,1
16460,26,2,373,1
16461,26,1,545,1
16462,26,1,355,1
16463,26,2,407,1
16464,26,2,322,0
16465,26,1,496,1
16466,26,2,375,1
16467,26,2,299,0
16468,26,1,393,1
16469,26,2,324,0
16470,26,1,282,1
16471,26,1,393,1
16472,26,2,300,0
16473,26,2,450,1
16474,26,2,483,1
16475,26,1,459,1
16476,26,1,379,1
16477,26,1,334,1
16478,26,1,428,1
16479,26,2,461,1
16576,26,1,321,1
16577,26,2,271,0
16578,26,2,399,1
16579,26,2,353,0
16580,26,2,358,1
16581,26,1,411,1
16582,26,1,381,1
16583,26,2,288,0
16584,26,1,463,1
16585,26,1,303,1
16586,26,1,302,1
16587,26,2,436,1
16588,26,2,462,1
16589,26,1,446,1
16590,26,1,430,1
16591,26,2,440,0
16592,26,1,345,1
16593,26,1,342,1
16594,26,2,379,1
16595,26,2,414,1
16596,26,1,360,0
16597,26,2,404,1
16598,26,2,495,1
16599,26,1,430,1
16600,26,2,279,0
16601,26,1,422,0
16602,26,2,472,1
16603,26,1,416,0
16604,26,2,434,1
16605,26,1,564,1
16606,26,1,412,1
16607,26,2,422,1
16704,26,1,516,1
16705,26,2,399,1
16706,26,1,322,1
16707,26,1,304,1
16708,26,1,238,1
16709,26,2,336,0
16710,26,1,301,1
16711,26,2,219,0
16712,26,2,301,0
16713,26,2,436,1
16714,26,1,365,1
16715,26,2,553,1
16716,26,1,331,1
16717,26,1,288,1
16718,26,2,247,0
16719,26,2,288,0
16720,26,2,335,1
16721,26,1,380,1
16722,26,2,440,1
16723,26,1,321,1
16724,26,1,295,1
16725,26,2,390,1
16726,26,2,361,1
16727,26,2,309,1
16728,26,1,428,1
16729,26,1,453,1
16730,26,1,302,1
16731,26,2,316,0
16732,26,1,546,1
16733,26,2,466,1
16734,26,1,402,1
16735,26,2,389,1
16832,26,1,412,1
16833,26,2,422,1
16834,26,2,496,1
16835,26,1,383,1
16836,26,2,530,1
16837,26,2,420,1
16838,26,2,406,1
16839,26,1,376,1
16840,26,2,420,0
16841,26,1,558,1
16842,26,2,343,1
16843,26,1,420,1
16844,26,1,270,1
16845,26,1,302,1
16846,26,2,252,0
16847,26,1,277,1
16848,26,1,412,1
16849,26,2,318,0
16850,26,1,396,1
16851,26,1,495,1
16852,26,2,853,1
16853,26,2,307,0
16854,26,1,345,1
16855,26,1,413,1
16856,26,1,336,1
16857,26,2,333,0
16858,26,1,250,1
16859,26,1,194,1
16860,26,2,285,0
16861,26,2,268,0
16862,26,2,244,0
16863,26,2,301,0
16960,26,1,439,1
16961,26,1,345,1
16962,26,1,309,1
16963,26,2,324,0
16964,26,1,434,1
16965,26,1,267,1
16966,26,2,283,0
16967,26,2,610,1
16968,26,2,369,1
16969,26,1,317,1
16970,26,1,331,1
16971,26,1,296,1
16972,26,2,351,0
16973,26,1,324,1
16974,26,2,425,1
16975,26,1,299,1
16976,26,1,410,1
16977,26,2,500,1
16978,26,1,355,1
16979,26,2,495,1
16980,26,2,398,1
16981,26,2,513,1
16982,26,2,307,1
16983,26,1,354,1
16984,26,1,327,1
16985,26,2,371,1
16986,26,1,367,1
16987,26,1,251,1
16988,26,2,372,1
16989,26,2,327,1
16990,26,2,405,1
16991,26,2,463,1
17184,27,2,386,1
17185,27,1,429,1
17186,27,1,335,1
17187,27,1,268,1
17188,27,2,300,0
17189,27,2,363,1
17190,27,2,383,1
17191,27,1,306,0
17192,27,2,425,1
17193,27,2,491,1
17194,27,1,354,0
17195,27,2,399,1
17196,27,1,329,0
17197,27,2,431,1
17198,27,1,392,1
17199,27,1,315,1
17200,27,2,505,1
17201,27,1,412,1
17202,27,2,278,0
17203,27,1,357,1
17204,27,2,281,1
17205,27,2,305,1
17206,27,1,319,0
17207,27,2,405,1
17208,27,1,336,1
17209,27,1,293,1
17210,27,2,284,0
17211,27,2,315,0
17212,27,1,361,1
17213,27,1,301,1
17214,27,1,324,1
17215,27,2,530,1
17312,27,1,370,1
17313,27,1,286,1
17314,27,2,285,0
17315,27,1,381,1
17316,27,2,400,1
17317,27,2,395,1
17318,27,2,349,1
17319,27,2,386,1
17320,27,1,397,1
17321,27,2,400,1
17322,27,1,331,1
17323,27,2,392,1
17324,27,1,322,1
17325,27,2,368,1
17326,27,1,308,1
17327,27,1,283,1
17328,27,2,386,1
17329,27,2,317,1
17330,27,2,275,1
17331,27,2,283,0
17332,27,1,355,1
17333,27,1,319,1
17334,27,1,309,1
17335,27,1,275,1
17336,27,1,323,1
17337,27,1,313,1
17338,27,2,407,1
17339,27,1,330,1
17340,27,1,231,0
17341,27,2,416,1
17342,27,2,362,1
17343,27,2,382,0
17440,27,1,439,1
17441,27,1,343,1
17442,27,2,404,1
17443,27,1,318,1
17444,27,1,252,1
17445,27,1,349,1
17446,27,2,434,1
17447,27,2,371,1
17448,27,2,391,1
17449,27,2,298,0
17450,27,2,369,1
17451,27,1,437,1
17452,27,1,454,1
17453,27,2,375,1
17454,27,2,379,1
17455,27,1,278,1
17456,27,1,357,1
17457,27,2,434,1
17458,27,1,323,1
17459,27,2,281,0
17460,27,2,385,1
17461,27,1,340,1
17462,27,1,265,0
17463,27,1,297,1
17464,27,2,328,1
17465,27,1,341,1
17466,27,1,394,1
17467,27,2,309,0
17468,27,2,460,1
17469,27,2,460,1
17470,27,2,276,0
17471,27,1,324,1
17568,27,2,361,0
17569,27,2,429,1
17570,27,1,367,1
17571,27,2,299,0
17572,27,1,409,1
17573,27,2,332,1
17574,27,1,345,1
17575,27,2,278,0
17576,27,2,381,0
17577,27,1,368,1
17578,27,2,324,0
17579,27,1,386,1
17580,27,1,334,1
17581,27,1,339,1
17582,27,2,304,0
17583,27,2,303,0
17584,27,2,422,1
17585,27,1,440,0
17586,27,2,329,1
17587,27,1,726,1
17588,27,2,448,1
17589,27,2,305,1
17590,27,2,359,1
17591,27,1,292,0
17592,27,1,291,1
17593,27,2,339,1
17594,27,1,368,1
17595,27,1,316,1
17596,27,2,298,0
17597,27,1,353,1
17598,27,1,309,1
17599,27,1,300,1
17696,27,2,377,1
17697,27,2,308,1
17698,27,2,275,0
17699,27,1,283,1
17700,27,1,322,0
17701,27,2,368,1
17702,27,2,316,1
17703,27,2,314,1
17704,27,1,336,1
17705,27,1,357,1
17706,27,1,282,1
17707,27,1,257,1
17708,27,1,322,1
17709,27,1,256,1
17710,27,2,304,0
17711,27,1,287,1
17712,27,1,350,1
17713,27,2,459,1
17714,27,1,363,1
17715,27,2,335,0
17716,27,1,349,1
17717,27,2,345,0
17718,27,2,462,1
17719,27,1,374,1
17720,27,1,361,1
17721,27,1,349,1
17722,27,2,338,0
17723,27,2,359,1
17724,27,2,420,1
17725,27,1,342,1
17726,27,2,387,0
17727,27,2,462,1
17824,27,1,334,1
17825,27,1,291,1
17826,27,2,410,1
17827,27,1,356,1
17828,27,1,257,1
17829,27,1,26,1
17830,27,2,331,0
17831,27,2,400,1
17832,27,2,387,1
17833,27,2,366,1
17834,27,1,410,1
17835,27,2,308,0
17836,27,1,339,1
17837,27,2,288,0
17838,27,2,359,1
17839,27,2,372,1
17840,27,2,312,1
17841,27,1,294,1
17842,27,1,284,1
17843,27,1,196,1
17844,27,1,262,1
17845,27,2,277,0
17846,27,1,357,1
17847,27,1,361,1
17848,27,1,357,1
17849,27,2,346,1
17850,27,2,311,0
17851,27,2,268,0
17852,27,1,476,1
17853,27,2,380,1
17854,27,1,335,1
17855,27,2,428,1
18144,28,1,432,1
18145,28,2,441,1
18146,28,1,419,1
18147,28,2,397,1
18148,28,1,390,1
18149,28,2,442,1
18150,28,2,443,1
18151,28,2,508,1
18152,28,2,447,1
18153,28,1,423,1
18154,28,2,441,1
18155,28,1,427,1
18156,28,1,420,1
18157,28,2,550,1
18158,28,2,407,1
18159,28,1,450,1
18160,28,1,395,1
18161,28,2,397,1
18162,28,1,464,1
18163,28,2,416,1
18164,28,1,346,1
18165,28,2,423,1
18166,28,1,449,1
18167,28,1,441,1
18168,28,1,387,1
18169,28,1,430,1
18170,28,1,391,1
18171,28,1,379,1
18172,28,2,374,1
18173,28,2,418,1
18174,28,2,380,1
18175,28,2,367,1
18272,28,1,386,1
18273,28,2,445,1
18274,28,2,422,1
18275,28,1,408,1
18276,28,1,331,1
18277,28,2,392,1
18278,28,2,435,1
18279,28,1,341,1
18280,28,1,354,1
18281,28,1,351,1
18282,28,2,507,1
18283,28,1,351,1
18284,28,2,443,1
18285,28,1,388,1
18286,28,1,479,1
18287,28,1,407,1
18288,28,2,401,1
18289,28,1,348,1
18290,28,2,329,1
18291,28,2,406,1
18292,28,1,392,1
18293,28,2,412,1
18294,28,1,358,1
18295,28,2,402,1
18296,28,1,493,1
18297,28,2,420,1
18298,28,1,366,1
18299,28,2,418,1
18300,28,2,508,1
18301,28,2,463,1
18302,28,2,447,1
18303,28,1,400,1
18400,28,2,414,1
18401,28,2,336,1
18402,28,1,398,1
18403,28,1,408,1
18404,28,1,419,1
18405,28,1,309,1
18406,28,1,411,1
18407,28,1,333,1
18408,28,2,458,1
18409,28,2,387,1
18410,28,2,390,1
18411,28,2,394,1
18412,28,1,428,1
18413,28,2,326,0
18414,28,1,380,1
18415,28,2,455,1
18416,28,2,424,1
18417,28,2,474,1
18418,28,1,450,1
18419,28,1,394,1
18420,28,1,333,1
18421,28,1,354,1
18422,28,1,375,1
18423,28,2,411,1
18424,28,1,421,1
18425,28,2,367,1
18426,28,2,435,1
18427,28,2,388,1
18428,28,1,360,1
18429,28,2,460,1
18430,28,1,364,1
18431,28,2,352,1
18528,28,1,293,1
18529,28,2,315,0
18530,28,1,345,1
18531,28,1,398,1
18532,28,1,337,1
18533,28,2,454,1
18534,28,2,431,1
18535,28,1,408,1
18536,28,1,387,1
18537,28,2,454,1
18538,28,1,359,1
18539,28,1,427,1
18540,28,2,413,1
18541,28,2,519,1
18542,28,1,609,1
18543,28,2,448,1
18544,28,2,329,1
18545,28,1,382,1
18546,28,2,418,1
18547,28,2,420,1
18548,28,2,414,1
18549,28,2,448,1
18550,28,2,344,1
18551,28,1,381,1
18552,28,1,416,1
18553,28,1,442,1
18554,28,1,364,1
18555,28,2,432,1
18556,28,2,377,1
18557,28,2,396,1
18558,28,1,447,1
18559,28,1,455,1
18656,28,2,396,1
18657,28,2,311,1
18658,28,2,308,1
18659,28,2,379,1
18660,28,1,326,1
18661,28,2,436,1
18662,28,1,533,1
18663,28,1,319,1
18664,28,1,333,1
18665,28,2,482,1
18666,28,1,442,1
18667,28,2,435,1
18668,28,1,340,1
18669,28,1,338,1
18670,28,1,359,1
18671,28,1,356,1
18672,28,2,424,1
18673,28,2,354,1
18674,28,1,407,1
18675,28,1,369,1
18676,28,1,429,1
18677,28,1,439,1
18678,28,2,432,1
18679,28,1,417,1
18680,28,2,435,1
18681,28,2,396,1
18682,28,2,342,1
18683,28,1,539,1
18684,28,2,397,1
18685,28,2,416,1
18686,28,2,402,1
18687,28,1,372,1
18784,28,2,383,1
18785,28,2,315,1
18786,28,2,473,1
18787,28,1,441,1
18788,28,1,346,1
18789,28,1,375,1
18790,28,2,346,1
18791,28,2,455,1
18792,28,2,368,1
18793,28,2,340,1
18794,28,1,361,1
18795,28,2,413,1
18796,28,2,415,1
18797,28,2,385,1
18798,28,2,396,1
18799,28,1,399,1
18800,28,1,506,1
18801,28,1,357,1
18802,28,1,418,1
18803,28,1,452,1
18804,28,2,396,1
18805,28,1,399,1
18806,28,1,354,1
18807,28,2,470,1
18808,28,1,357,1
18809,28,1,330,1
18810,28,1,407,1
18811,28,2,394,1
18812,28,2,413,1
18813,28,1,383,1
18814,28,1,378,1
18815,28,2,381,1
18944,29,2,512,1
18945,29,1,347,1
18946,29,2,272,0
18947,29,1,287,1
18948,29,1,310,1
18949,29,2,364,1
18950,29,1,320,1
18951,29,1,398,1
18952,29,2,432,1
18953,29,2,426,1
18954,29,2,323,1
18955,29,1,265,1
18956,29,1,265,1
18957,29,1,297,1
18958,29,2,263,1
18959,29,1,455,1
18960,29,1,296,1
18961,29,1,295,1
18962,29,2,309,0
18963,29,1,435,1
18964,29,1,325,1
18965,29,2,283,0
18966,29,1,322,1
18967,29,1,400,1
18968,29,1,291,1
18969,29,2,362,0
18970,29,2,350,0
18971,29,2,578,1
18972,29,2,298,1
18973,29,2,305,1
18974,29,2,360,1
18975,29,2,404,1
19072,29,1,458,1
19073,29,1,371,1
19074,29,1,295,1
19075,29,1,293,1
19076,29,1,300,1
19077,29,2,267,0
19078,29,2,362,1
19079,29,1,342,1
19080,29,2,300,0
19081,29,1,290,1
19082,29,1,322,0
19083,29,2,312,0
19084,29,1,302,1
19085,29,1,300,1
19086,29,2,387,1
19087,29,2,350,1
19088,29,1,283,1
19089,29,1,266,1
19090,29,2,346,1
19091,29,1,279,1
19092,29,2,390,1
19093,29,1,329,1
19094,29,2,335,1
19095,29,2,308,1
19096,29,2,339,1
19097,29,2,360,1
19098,29,2,268,0
19099,29,1,412,1
19100,29,1,454,1
19101,29,2,326,1
19102,29,2,292,0
19103,29,2,419,1
19200,29,2,482,1
19201,29,2,265,0
19202,29,2,329,0
19203,29,1,295,1
19204,29,2,365,1
19205,29,2,385,1
19206,29,2,317,1
19207,29,1,363,1
19208,29,2,382,1
19209,29,1,330,1
19210,29,1,287,1
19211,29,1,278,1
19212,29,1,254,1
19213,29,1,254,1
19214,29,1,263,1
19215,29,1,247,1
19216,29,2,295,0
19217,29,1,789,1
19218,29,1,389,1
19219,29,1,272,1
19220,29,1,296,1
19221,29,2,343,1
19222,29,2,220,1
19223,29,2,333,1
19224,29,1,395,0
19225,29,2,277,0
19226,29,1,317,1
19227,29,2,299,1
19228,29,1,241,1
19229,29,2,363,1
19230,29,2,303,1
19231,29,2,333,1
19328,29,1,455,1
19329,29,2,288,0
19330,29,1,311,1
19331,29,1,301,1
19332,29,1,308,1
19333,29,2,370,1
19334,29,2,334,1
19335,29,2,388,1
19336,29,1,239,1
19337,29,2,256,0
19338,29,1,273,1
19339,29,2,313,0
19340,29,2,303,1
19341,29,2,317,1
19342,29,1,355,1
19343,29,1,272,1
19344,29,2,256,0
19345,29,1,537,1
19346,29,2,499,1
19347,29,2,313,1
19348,29,2,351,1
19349,29,1,300,1
19350,29,2,338,1
19351,29,1,392,1
19352,29,1,363,1
19353,29,2,799,1
19354,29,2,342,1
19355,29,1,196,1
19356,29,1,238,1
19357,29,1,183,0
19358,29,1,267,1
19359,29,2,227,0
19456,29,1,294,1
19457,29,1,221,1
19458,29,2,350,0
19459,29,2,291,0
19460,29,2,386,1
19461,29,1,198,1
19462,29,2,216,0
19463,29,1,274,1
19464,29,2,450,1
19465,29,2,323,1
19466,29,2,329,1
19467,29,1,350,1
19468,29,2,283,1
19469,29,1,362,1
19470,29,1,334,1
19471,29,2,355,1
19472,29,1,360,1
19473,29,2,292,0
19474,29,2,355,1
19475,29,1,336,1
19476,29,1,285,1
19477,29,1,292,1
19478,29,1,444,1
19479,29,2,364,1
19480,29,1,304,1
19481,29,2,598,1
19482,29,2,461,1
19483,29,2,381,1
19484,29,1,345,1
19485,29,1,325,1
19486,29,2,339,1
19487,29,1,369,1
19584,29,2,371,1
19585,29,1,351,0
19586,29,1,356,1
19587,29,2,288,0
19588,29,2,504,1
19589,29,2,331,1
19590,29,1,480,1
19591,29,1,303,1
19592,29,1,374,1
19593,29,1,306,1
19594,29,2,577,1
19595,29,2,401,1
19596,29,1,395,1
19597,29,2,358,1
19598,29,2,307,1
19599,29,1,321,0
19600,29,2,415,1
19601,29,1,481,0
19602,29,1,320,1
19603,29,2,270,0
19604,29,1,446,1
19605,29,2,287,1
19606,29,1,462,1
19607,29,1,302,1
19608,29,2,373,1
19609,29,2,385,1
19610,29,2,340,1
19611,29,1,330,1
19612,29,2,295,0
19613,29,2,293,0
19614,29,1,412,1
19615,29,1,374,1
19872,3,1,370,1
19873,3,1,574,1
19874,3,1,414,1
19875,3,2,536,1
19876,3,1,426,1
19877,3,2,443,1
19878,3,2,428,1
19879,3,1,429,1
19880,3,1,503,1
19881,3,1,402,1
19882,3,2,389,1
19883,3,1,416,1
19884,3,2,378,1
19885,3,1,357,1
19886,3,1,362,1
19887,3,1,550,1
19888,3,1,383,1
19889,3,2,378,0
19890,3,2,486,1
19891,3,2,429,1
19892,3,2,438,1
19893,3,2,360,1
19894,3,1,340,1
19895,3,1,425,1
19896,3,1,403,1
19897,3,2,414,1
19898,3,2,376,1
19899,3,2,308,1
19900,3,2,409,1
19901,3,1,491,1
19902,3,2,451,1
19903,3,2,411,1
20000,3,1,582,1
20001,3,1,342,1
20002,3,1,331,1
20003,3,2,496,1
20004,3,1,375,1
20005,3,1,395,1
20006,3,1,398,0
20007,3,1,440,1
20008,3,2,378,1
20009,3,1,381,1
20010,3,2,784,1
20011,3,2,352,1
20012,3,2,381,1
20013,3,1,424,1
20014,3,2,426,1
20015,3,2,412,1
20016,3,2,486,1
20017,3,1,422,1
20018,3,1,335,1
20019,3,1,540,1
20020,3,2,358,1
20021,3,2,483,1
20022,3,1,394,1
20023,3,1,381,1
20024,3,1,448,1
20025,3,2,353,0
20026,3,2,501,1
20027,3,1,345,1
20028,3,2,429,1
20029,3,2,383,1
20030,3,2,362,1
20031,3,2,374,1
20128,3,1,419,1
20129,3,1,469,1
20130,3,1,413,1
20131,3,1,367,1
20132,3,2,435,1
20133,3,1,452,1
20134,3,2,437,1
20135,3,1,446,1
20136,3,2,422,1
20137,3,1,400,1
20138,3,2,499,1
20139,3,1,433,1
20140,3,1,467,1
20141,3,2,491,1
20142,3,1,546,1
20143,3,2,427,1
20144,3,1,501,1
20145,3,2,392,1
20146,3,2,507,1
20147,3,2,510,1
20148,3,1,433,1
20149,3,2,586,1
20150,3,2,362,1
20151,3,2,374,1
20152,3,1,338,1
20153,3,1,295,1
20154,3,2,334,1
20155,3,2,555,1
20156,3,2,405,1
20157,3,1,447,1
20158,3,1,328,1
20159,3,2,349,1
20256,3,2,460,1
20257,3,2,396,1
20258,3,2,391,1
20259,3,2,394,1
20260,3,2,469,1
20261,3,1,421,1
20262,3,1,423,1
20263,3,1,369,1
20264,3,2,405,1
20265,3,1,455,1
20266,3,1,312,1
20267,3,1,438,1
20268,3,2,367,1
20269,3,2,435,1
20270,3,2,413,1
20271,3,2,351,1
20272,3,2,411,1
20273,3,2,493,1
20274,3,1,436,1
20275,3,1,389,1
20276,3,1,521,1
20277,3,2,491,0
20278,3,1,515,0
20279,3,1,413,1
20280,3,2,471,1
20281,3,2,519,1
20282,3,2,426,1
20283,3,1,452,0
20284,3,1,1237,1
20285,3,1,419,1
20286,3,1,389,1
20287,3,1,408,1
20384,3,1,612,1
20385,3,2,387,1
20386,3,1,422,1
20387,3,2,456,1
20388,3,2,409,1
20389,3,2,579,0
20390,3,2,667,1
20391,3,1,440,1
20392,3,2,465,1
20393,3,2,497,1
20394,3,2,528,1
20395,3,1,426,1
20396,3,2,420,1
20397,3,2,446,1
20398,3,1,534,1
20399,3,1,456,1
20400,3,2,473,1
20401,3,1,881,1
20402,3,2,420,1
20403,3,1,446,1
20404,3,1,383,1
20405,3,1,378,1
20406,3,1,429,1
20407,3,2,551,1
20408,3,1,376,1
20409,3,2,403,1
20410,3,1,414,1
20411,3,1,392,1
20412,3,2,387,0
20413,3,1,439,1
20414,3,1,280,1
20415,3,2,375,1
20512,3,2,559,1
20513,3,2,400,1
20514,3,2,443,1
20515,3,1,412,1
20516,3,1,414,1
20517,3,1,408,1
20518,3,2,434,1
20519,3,1,379,1
20520,3,1,414,0
20521,3,2,440,1
20522,3,1,401,1
20523,3,2,404,1
20524,3,1,447,1
20525,3,1,415,1
20526,3,1,393,1
20527,3,2,372,1
20528,3,2,424,1
20529,3,2,426,1
20530,3,1,355,1
20531,3,2,416,1
20532,3,2,458,1
20533,3,2,427,1
20534,3,1,340,1
20535,3,1,329,1
20536,3,2,367,1
20537,3,2,443,1
20538,3,1,403,1
20539,3,1,542,0
20540,3,1,296,1
20541,3,1,431,1
20542,3,2,384,1
20543,3,2,339,0
20800,30,1,467,1
20801,30,1,275,1
20802,30,2,250,0
20803,30,1,307,1
20804,30,1,234,1
20805,30,1,235,1
20806,30,2,188,0
20807,30,2,335,0
20808,30,2,397,1
20809,30,2,311,1
20810,30,2,373,1
20811,30,1,393,1
20812,30,1,284,1
20813,30,2,291,0
20814,30,2,411,1
20815,30,2,301,1
20816,30,1,235,1
20817,30,1,268,1
20818,30,2,292,0
20819,30,1,300,1
20820,30,2,370,1
20821,30,1,302,1
20822,30,2,261,0
20823,30,2,453,1
20824,30,2,414,1
20825,30,2,416,1
20826,30,2,298,1
20827,30,1,336,0
20828,30,1,301,1
20829,30,1,300,1
20830,30,1,291,1
20831,30,1,402,1
20928,30,2,430,1
20929,30,2,336,1
20930,30,2,389,1
20931,30,1,376,1
20932,30,1,364,1
20933,30,2,384,1
20934,30,2,484,1
20935,30,1,347,1
20936,30,2,344,1
20937,30,2,372,1
20938,30,2,448,1
20939,30,1,337,1
20940,30,1,422,1
20941,30,2,327,1
20942,30,1,332,1
20943,30,2,338,1
20944,30,2,311,1
20945,30,1,373,1
20946,30,1,297,1
20947,30,2,272,1
20948,30,1,368,0
20949,30,2,316,1
20950,30,2,218,0
20951,30,1,355,1
20952,30,1,328,1
20953,30,1,325,1
20954,30,2,403,1
20955,30,1,382,0
20956,30,1,305,1
20957,30,1,288,1
20958,30,2,343,1
20959,30,1,332,1
21056,30,2,395,1
21057,30,2,293,0
21058,30,1,372,0
21059,30,2,384,1
21060,30,2,363,1
21061,30,2,375,1
21062,30,1,347,1
21063,30,2,312,1
21064,30,1,286,1
21065,30,2,365,1
21066,30,2,465,1
21067,30,1,417,1
21068,30,1,347,1
21069,30,2,431,1
21070,30,1,353,1
21071,30,1,365,1
21072,30,1,297,1
21073,30,1,328,1
21074,30,1,317,1
21075,30,1,403,1
21076,30,2,366,0
21077,30,2,394,1
21078,30,2,293,1
21079,30,1,371,1
21080,30,2,439,1
21081,30,1,313,1
21082,30,2,310,0
21083,30,1,364,1
21084,30,1,264,1
21085,30,2,336,0
21086,30,1,350,1
21087,30,2,298,1
21184,30,1,369,1
21185,30,1,253,1
21186,30,1,254,1
21187,30,1,174,1
21188,30,1,210,1
21189,30,1,348,1
21190,30,2,225,0
21191,30,2,363,1
21192,30,2,247,1
21193,30,1,351,1
21194,30,2,300,1
21195,30,1,203,0
21196,30,1,389,1
21197,30,2,288,0
21198,30,2,328,1
21199,30,1,301,1
21200,30,1,324,1
21201,30,1,258,1
21202,30,2,266,0
21203,30,1,370,1
21204,30,1,214,1
21205,30,2,288,0
21206,30,2,423,1
21207,30,2,273,1
21208,30,1,465,1
21209,30,2,337,1
21210,30,2,303,1
21211,30,1,293,1
21212,30,2,268,1
21213,30,2,300,0
21214,30,2,442,1
21215,30,2,380,1
21312,30,1,442,1
21313,30,2,355,1
21314,30,1,416,1
21315,30,2,418,1
21316,30,1,492,1
21317,30,2,419,1
21318,30,2,293,1
21319,30,1,388,1
21320,30,1,351,1
21321,30,2,516,1
21322,30,2,399,1
21323,30,1,345,0
21324,30,1,318,1
21325,30,1,348,1
21326,30,2,384,1
21327,30,2,372,1
21328,30,1,336,1
21329,30,2,461,1
21330,30,2,413,1
21331,30,1,351,1
21332,30,1,460,1
21333,30,1,364,1
21334,30,2,360,1
21335,30,2,380,1
21336,30,2,424,1
21337,30,2,401,1
21338,30,1,451,0
21339,30,2,412,1
21340,30,2,430,1
21341,30,1,407,1
21342,30,1,258,1
21343,30,1,363,1
21440,30,2,364,1
21441,30,1,296,1
21442,30,2,351,1
21443,30,1,459,1
21444,30,2,364,1
21445,30,1,312,0
21446,30,2,318,0
21447,30,2,284,0
21448,30,1,291,1
21449,30,1,354,1
21450,30,2,311,0
21451,30,1,293,0
21452,30,1,380,1
21453,30,2,287,0
21454,30,1,374,1
21455,30,1,330,1
21456,30,2,344,1
21457,30,1,372,1
21458,30,1,312,1
21459,30,1,302,1
21460,30,1,301,0
21461,30,1,363,1
21462,30,2,310,0
21463,30,2,380,1
21464,30,1,368,1
21465,30,2,364,1
21466,30,2,368,1
21467,30,2,308,1
21468,30,2,370,1
21469,30,2,334,1
21470,30,2,307,1
21471,30,1,338,0
21664,31,1,533,1
21665,31,1,279,1
21666,31,1,367,1
21667,31,1,315,1
21668,31,2,448,1
21669,31,1,361,1
21670,31,2,461,1
21671,31,2,405,1
21672,31,1,480,1
21673,31,2,431,1
21674,31,1,408,1
21675,31,1,363,1
21676,31,1,359,1
21677,31,1,396,1
21678,31,1,350,1
21679,31,2,427,1
21680,31,2,404,1
21681,31,2,375,0
21682,31,1,379,1
21683,31,1,374,1
21684,31,2,426,0
21685,31,1,348,1
21686,31,2,424,1
21687,31,1,546,1
21688,31,1,444,1
21689,31,2,444,1
21690,31,2,437,1
21691,31,2,478,1
21692,31,2,454,1
21693,31,2,406,1
21694,31,2,409,1
21695,31,2,380,1
21792,31,2,482,1
21793,31,1,370,1
21794,31,2,430,1
21795,31,1,431,1
21796,31,2,408,1
21797,31,1,379,1
21798,31,1,342,1
21799,31,1,300,1
21800,31,2,426,1
21801,31,2,404,1
21802,31,1,399,1
21803,31,1,409,1
21804,31,2,499,1
21805,31,2,402,1
21806,31,1,301,1
21807,31,1,331,1
21808,31,2,425,1
21809,31,2,291,0
21810,31,2,362,1
21811,31,1,398,1
21812,31,2,433,1
21813,31,2,442,1
21814,31,2,403,1
21815,31,1,462,1
21816,31,1,358,1
21817,31,2,371,1
21818,31,2,367,1
21819,31,1,355,1
21820,31,1,391,1
21821,31,1,418,1
21822,31,1,436,1
21823,31,2,390,1
21920,31,1,434,1
21921,31,1,404,1
21922,31,2,446,1
21923,31,2,471,1
21924,31,2,423,1
21925,31,1,401,1
21926,31,1,276,1
21927,31,2,396,1
21928,31,2,406,1
21929,31,2,321,0
21930,31,2,447,1
21931,31,1,352,1
21932,31,2,420,1
21933,31,1,430,1
21934,31,1,504,1
21935,31,1,459,1
21936,31,1,395,1
21937,31,2,390,1
21938,31,1,337,1
21939,31,1,439,1
21940,31,2,496,1
21941,31,2,527,1
21942,31,1,401,1
21943,31,2,435,1
21944,31,2,405,1
21945,31,1,615,1
21946,31,2,486,1
21947,31,1,525,1
21948,31,2,320,0
21949,31,1,358,1
21950,31,2,394,1
21951,31,1,381,1
22048,31,2,508,1
22049,31,2,423,1
22050,31,2,457,1
22051,31,1,530,1
22052,31,1,340,1
22053,31,2,361,1
22054,31,1,349,1
22055,31,1,346,1
22056,31,2,350,1
22057,31,1,331,1
22058,31,1,288,1
22059,31,2,320,0
22060,31,2,446,1
22061,31,2,342,0
22062,31,1,403,1
22063,31,2,454,1
22064,31,2,367,1
22065,31,2,307,0
22066,31,1,361,0
22067,31,1,373,1
22068,31,1,353,1
22069,31,2,414,1
22070,31,1,392,1
22071,31,1,427,1
22072,31,1,388,1
22073,31,2,503,1
22074,31,1,386,1
22075,31,2,437,1
22076,31,1,415,1
22077,31,1,345,1
22078,31,2,381,0
22079,31,2,321,0
22176,31,1,405,1
22177,31,2,391,1
22178,31,2,403,1
22179,31,2,373,1
22180,31,2,416,1
22181,31,1,370,1
22182,31,1,326,0
22183,31,2,332,1
22184,31,2,265,0
22185,31,2,361,1
22186,31,1,325,1
22187,31,1,339,1
22188,31,2,312,1
22189,31,1,310,1
22190,31,2,276,0
22191,31,1,347,1
22192,31,1,280,1
22193,31,1,335,1
22194,31,2,389,1
22195,31,2,384,1
22196,31,2,275,0
22197,31,1,355,1
22198,31,1,280,1
22199,31,1,343,1
22200,31,2,260,0
22201,31,2,388,1
22202,31,1,343,1
22203,31,2,324,0
22204,31,1,410,1
22205,31,2,372,1
22206,31,1,416,0
22207,31,1,370,1
22304,31,2,494,1
22305,31,1,365,0
22306,31,1,345,1
22307,31,1,413,1
22308,31,2,263,0
22309,31,1,399,1
22310,31,1,362,1
22311,31,2,398,1
22312,31,1,337,1
22313,31,1,366,1
22314,31,2,418,1
22315,31,2,396,1
22316,31,1,479,1
22317,31,2,662,1
22318,31,1,379,1
22319,31,2,478,0
22320,31,2,405,1
22321,31,1,456,1
22322,31,1,353,1
22323,31,1,365,1
22324,31,1,321,1
22325,31,2,407,1
22326,31,2,426,1
22327,31,1,428,1
22328,31,2,405,1
22329,31,2,408,1
22330,31,1,338,1
22331,31,2,416,1
22332,31,2,378,1
22333,31,2,429,1
22334,31,2,334,1
22335,31,1,355,1
22624,32,2,587,1
22625,32,1,362,0
22626,32,1,254,1
22627,32,2,327,0
22628,32,2,388,1
22629,32,2,320,1
22630,32,2,334,1
22631,32,2,387,1
22632,32,1,342,1
22633,32,1,268,1
22634,32,2,363,0
22635,32,1,351,1
22636,32,2,292,0
22637,32,1,451,1
22638,32,1,356,1
22639,32,1,393,1
22640,32,2,292,0
22641,32,2,531,1
22642,32,2,349,1
22643,32,2,394,1
22644,32,1,292,1
22645,32,2,372,1
22646,32,1,440,1
22647,32,2,400,1
22648,32,2,315,0
22649,32,1,409,1
22650,32,1,307,1
22651,32,2,362,1
22652,32,1,350,1
22653,32,1,267,1
22654,32,1,323,0
22655,32,1,224,1
22752,32,1,389,1
22753,32,2,376,0
22754,32,2,396,1
22755,32,1,374,1
22756,32,2,538,1
22757,32,1,332,1
22758,32,2,329,0
22759,32,2,399,1
22760,32,1,353,0
22761,32,2,214,0
22762,32,2,248,0
22763,32,1,232,0
22764,32,2,322,1
22765,32,2,352,1
22766,32,1,348,1
22767,32,2,337,1
22768,32,1,230,1
22769,32,1,392,1
22770,32,2,323,0
22771,32,2,369,1
22772,32,2,333,1
22773,32,1,378,1
22774,32,1,261,1
22775,32,1,301,1
22776,32,2,396,1
22777,32,1,439,1
22778,32,1,224,1
22779,32,1,298,1
22780,32,1,361,1
22781,32,2,141,0
22782,32,2,210,1
22783,32,1,372,1
22880,32,2,391,0
22881,32,2,482,1
22882,32,2,393,1
22883,32,2,372,1
22884,32,1,448,1
22885,32,2,121,1
22886,32,1,87,0
22887,32,2,670,1
22888,32,2,322,0
22889,32,2,520,1
22890,32,1,387,1
22891,32,1,326,1
22892,32,2,396,1
22893,32,1,335,0
22894,32,1,436,1
22895,32,1,269,1
22896,32,1,373,1
22897,32,1,353,1
22898,32,1,366,1
22899,32,2,386,1
22900,32,2,373,1
22901,32,1,337,1
22902,32,1,319,1
22903,32,2,333,0
22904,32,2,322,1
22905,32,2,448,1
22906,32,1,384,1
22907,32,1,380,1
22908,32,2,399,1
22909,32,2,346,1
22910,32,1,318,1
22911,32,1,364,1
23008,32,2,625,1
23009,32,1,296,0
23010,32,2,431,1
23011,32,1,328,0
23012,32,1,437,1
23013,32,2,383,1
23014,32,2,377,1
23015,32,1,332,1
23016,32,2,690,1
23017,32,2,406,1
23018,32,1,376,1
23019,32,2,507,1
23020,32,1,247,1
23021,32,2,527,1
23022,32,2,393,1
23023,32,2,444,1
23024,32,2,324,0
23025,32,2,346,1
23026,32,1,263,0
23027,32,2,375,0
23028,32,1,371,1
23029,32,1,367,1
23030,32,2,411,1
23031,32,1,285,1
23032,32,1,268,1
23033,32,1,228,1
23034,32,2,421,1
23035,32,2,415,1
23036,32,1,361,1
23037,32,1,333,1
23038,32,1,331,1
23039,32,1,328,1
23136,32,1,399,1
23137,32,2,481,1
23138,32,1,337,1
23139,32,2,510,1
23140,32,1,401,1
23141,32,1,299,1
23142,32,1,418,1
23143,32,2,540,1
23144,32,2,422,1
23145,32,1,232,0
23146,32,2,209,0
23147,32,2,236,0
23148,32,1,229,0
23149,32,1,350,1
23150,32,1,323,1
23151,32,2,345,0
23152,32,2,541,1
23153,32,2,303,1
23154,32,1,318,1
23155,32,1,332,1
23156,32,2,377,1
23157,32,1,269,1
23158,32,2,356,1
23159,32,1,377,1
23160,32,1,380,1
23161,32,2,416,1
23162,32,1,394,1
23163,32,1,340,1
23164,32,2,354,1
23165,32,2,318,1
23166,32,2,348,1
23167,32,2,337,0
23264,32,1,408,1
23265,32,1,347,1
23266,32,2,231,0
23267,32,1,297,1
23268,32,1,375,1
23269,32,2,467,1
23270,32,1,235,0
23271,32,2,285,0
23272,32,2,436,1
23273,32,2,269,1
23274,32,2,405,0
23275,32,2,416,1
23276,32,1,394,1
23277,32,2,461,1
23278,32,1,397,1
23279,32,1,375,1
23280,32,2,371,1
23281,32,1,319,1
23282,32,2,373,1
23283,32,2,745,1
23284,32,1,394,1
23285,32,1,348,1
23286,32,1,329,1
23287,32,1,398,1
23288,32,1,401,1
23289,32,2,307,0
23290,32,2,442,1
23291,32,2,347,1
23292,32,2,392,1
23293,32,1,363,1
23294,32,1,351,1
23295,32,2,404,1
23520,4,2,609,1
23521,4,2,431,1
23522,4,1,433,0
23523,4,2,538,1
23524,4,2,444,0
23525,4,2,589,1
23526,4,1,452,1
23527,4,2,397,1
23528,4,1,368,1
23529,4,1,340,1
23530,4,1,465,1
23531,4,1,313,1
23532,4,2,431,1
23533,4,2,440,1
23534,4,1,594,1
23535,4,1,425,1
23536,4,1,363,0
23537,4,2,471,1
23538,4,1,399,1
23539,4,1,410,1
23540,4,2,428,1
23541,4,2,421,1
23542,4,1,439,1
23543,4,2,544,1
23544,4,2,434,1
23545,4,2,419,1
23546,4,1,437,1
23547,4,2,446,1
23548,4,1,383,1
23549,4,1,346,1
23550,4,2,407,1
23551,4,1,618,1
23648,4,2,615,1
23649,4,2,389,1
23650,4,1,353,1
23651,4,1,445,1
23652,4,2,382,1
23653,4,1,337,1
23654,4,2,359,1
23655,4,2,387,1
23656,4,1,383,0
23657,4,2,610,1
23658,4,1,496,1
23659,4,2,463,1
23660,4,1,335,1
23661,4,2,501,1
23662,4,1,328,1
23663,4,2,429,1
23664,4,2,366,1
23665,4,1,530,1
23666,4,1,452,1
23667,4,2,469,1
23668,4,1,453,1
23669,4,1,446,1
23670,4,2,413,1
23671,4,2,383,1
23672,4,2,419,1
23673,4,1,397,1
23674,4,1,383,1
23675,4,1,363,1
23676,4,2,375,1
23677,4,1,403,1
23678,4,1,381,1
23679,4,2,481,1
23776,4,2,533,1
23777,4,1,391,0
23778,4,1,466,1
23779,4,2,378,0
23780,4,1,446,1
23781,4,1,350,1
23782,4,2,435,1
23783,4,2,428,1
23784,4,2,437,1
23785,4,2,430,1
23786,4,2,399,1
23787,4,1,346,1
23788,4,2,343,0
23789,4,1,331,1
23790,4,1,416,1
23791,4,1,378,1
23792,4,2,470,1
23793,4,2,454,1
23794,4,2,367,1
23795,4,2,402,1
23796,4,1,477,1
23797,4,1,429,1
23798,4,1,414,1
23799,4,1,440,1
23800,4,1,417,1
23801,4,2,507,0
23802,4,2,430,1
23803,4,1,360,1
23804,4,2,404,1
23805,4,2,446,1
23806,4,1,287,1
23807,4,1,430,1
23904,4,1,493,1
23905,4,2,428,1
23906,4,1,405,1
23907,4,1,464,1
23908,4,1,400,1
23909,4,1,306,1
23910,4,1,385,1
23911,4,1,380,1
23912,4,2,312,0
23913,4,1,454,0
23914,4,2,566,1
23915,4,2,519,1
23916,4,2,417,1
23917,4,1,547,1
23918,4,1,357,1
23919,4,1,489,1
23920,4,2,385,0
23921,4,2,324,0
23922,4,2,546,1
23923,4,1,395,1
23924,4,1,598,1
23925,4,1,397,1
23926,4,1,360,1
23927,4,2,316,0
23928,4,2,370,1
23929,4,2,430,1
23930,4,2,487,1
23931,4,2,414,1
23932,4,2,432,1
23933,4,1,602,1
23934,4,2,377,1
23935,4,2,412,1
24032,4,2,447,1
24033,4,1,399,1
24034,4,1,290,1
24035,4,2,441,1
24036,4,1,387,1
24037,4,1,430,1
24038,4,2,375,0
24039,4,2,571,1
24040,4,1,396,1
24041,4,2,375,1
24042,4,1,315,1
24043,4,2,449,1
24044,4,1,465,1
24045,4,1,417,1
24046,4,2,459,1
24047,4,2,436,0
24048,4,1,493,1
24049,4,1,436,1
24050,4,2,677,1
24051,4,2,448,1
24052,4,1,385,1
24053,4,2,452,1
24054,4,2,453,1
24055,4,2,462,1
24056,4,2,526,0
24057,4,1,544,1
24058,4,1,353,1
24059,4,1,269,1
24060,4,2,325,0
24061,4,2,379,1
24062,4,1,399,0
24063,4,1,345,1
24160,4,2,576,0
24161,4,2,433,1
24162,4,2,337,1
24163,4,2,463,1
24164,4,1,407,1
24165,4,1,409,1
24166,4,2,395,1
24167,4,1,446,1
24168,4,1,423,1
24169,4,1,425,1
24170,4,1,387,1
24171,4,1,374,1
24172,4,1,402,1
24173,4,1,397,1
24174,4,1,415,1
24175,4,2,473,1
24176,4,2,633,1
24177,4,2,407,1
24178,4,2,434,1
24179,4,1,443,1
24180,4,2,476,1
24181,4,2,412,1
24182,4,1,358,1
24183,4,1,362,1
24184,4,1,382,1
24185,4,2,426,1
24186,4,1,332,1
24187,4,2,457,1
24188,4,1,458,0
24189,4,2,378,1
24190,4,2,358,1
24191,4,2,394,1
24320,5,2,397,1
24321,5,2,343,1
24322,5,1,316,0
24323,5,2,402,1
24324,5,1,269,1
24325,5,1,325,0
24326,5,2,323,1
24327,5,2,265,0
24328,5,1,305,1
24329,5,1,303,1
24330,5,2,342,1
24331,5,1,419,1
24332,5,2,357,1
24333,5,2,314,1
24334,5,1,400,1
24335,5,1,314,1
24336,5,2,304,1
24337,5,1,359,1
24338,5,1,284,1
24339,5,2,314,0
24340,5,1,368,1
24341,5,1,340,1
24342,5,2,305,1
24343,5,1,344,1
24344,5,1,276,1
24345,5,2,380,1
24346,5,2,303,1
24347,5,2,302,1
24348,5,2,300,1
24349,5,2,323,1
24350,5,1,337,0
24351,5,1,374,1
24448,5,2,393,1
24449,5,2,412,1
24450,5,1,342,0
24451,5,1,387,1
24452,5,2,375,0
24453,5,2,491,1
24454,5,2,410,1
24455,5,1,468,1
24456,5,2,356,1
24457,5,2,393,1
24458,5,2,395,1
24459,5,2,390,1
24460,5,2,385,1
24461,5,1,349,1
24462,5,1,369,1
24463,5,1,357,1
24464,5,1,354,1
24465,5,1,431,1
24466,5,1,480,1
24467,5,2,423,1
24468,5,1,393,1
24469,5,1,396,1
24470,5,1,351,1
24471,5,2,379,1
24472,5,1,471,1
24473,5,1,343,1
24474,5,1,332,1
24475,5,2,385,1
24476,5,1,373,1
24477,5,2,537,1
24478,5,2,434,1
24479,5,2,395,1
24576,5,2,395,1
24577,5,2,309,1
24578,5,1,380,1
24579,5,2,383,1
24580,5,2,355,1
24581,5,2,399,1
24582,5,1,418,1
24583,5,1,404,1
24584,5,1,375,1
24585,5,1,283,1
24586,5,1,434,1
24587,5,2,467,1
24588,5,1,299,1
24589,5,1,401,1
24590,5,2,324,1
24591,5,2,362,1
24592,5,1,286,1
24593,5,1,333,1
24594,5,1,322,1
24595,5,2,312,1
24596,5,2,342,1
24597,5,1,355,1
24598,5,1,328,1
24599,5,2,365,1
24600,5,1,345,1
24601,5,2,294,1
24602,5,2,341,1
24603,5,2,426,1
24604,5,1,435,1
24605,5,1,453,1
24606,5,2,373,1
24607,5,2,361,1
24704,5,1,408,1
24705,5,1,323,1
24706,5,1,369,1
24707,5,1,309,1
24708,5,2,363,1
24709,5,1,287,1
24710,5,1,319,1
24711,5,2,341,0
24712,5,2,418,1
24713,5,2,372,1
24714,5,1,528,1
24715,5,2,426,1
24716,5,1,347,1
24717,5,2,392,1
24718,5,1,379,1
24719,5,2,518,1
24720,5,2,353,1
24721,5,2,342,1
24722,5,2,435,1
24723,5,2,284,1
24724,5,2,396,1
24725,5,1,326,1
24726,5,1,372,1
24727,5,2,416,1
24728,5,2,362,1
24729,5,1,310,1
24730,5,2,411,1
24731,5,1,317,1
24732,5,2,387,1
24733,5,1,335,1
24734,5,1,332,1
24735,5,1,281,1
24832,5,1,402,1
24833,5,1,261,1
24834,5,2,333,1
24835,5,2,378,1
24836,5,1,382,1
24837,5,1,313,1
24838,5,1,343,1
24839,5,2,427,1
24840,5,2,389,1
24841,5,2,408,1
24842,5,1,363,0
24843,5,1,383,1
24844,5,1,330,1
24845,5,2,383,1
24846,5,2,387,1
24847,5,2,350,1
24848,5,1,347,1
24849,5,2,479,1
24850,5,2,391,1
24851,5,2,354,1
24852,5,2,383,1
24853,5,1,386,1
24854,5,2,413,1
24855,5,2,351,0
24856,5,2,436,1
24857,5,1,349,0
24858,5,1,322,1
24859,5,1,296,1
24860,5,2,375,1
24861,5,1,419,1
24862,5,1,460,1
24863,5,1,412,1
24960,5,1,349,1
24961,5,2,362,0
24962,5,1,334,1
24963,5,1,339,1
24964,5,2,481,1
24965,5,2,440,1
24966,5,1,353,1
24967,5,1,342,1
24968,5,1,347,1
24969,5,2,352,0
24970,5,2,341,0
24971,5,1,458,1
24972,5,1,339,1
24973,5,2,400,1
24974,5,2,323,1
24975,5,2,313,1
24976,5,1,319,1
24977,5,1,348,1
24978,5,1,329,1
24979,5,2,350,1
24980,5,2,347,1
24981,5,2,304,1
24982,5,1,366,1
24983,5,2,321,1
24984,5,1,327,1
24985,5,1,405,1
24986,5,2,335,1
24987,5,2,269,0
24988,5,2,333,1
24989,5,1,386,1
24990,5,2,349,1
24991,5,1,338,1
25280,6,2,465,1
25281,6,1,321,0
25282,6,2,463,1
25283,6,2,487,1
25284,6,1,335,1
25285,6,2,364,1
25286,6,1,456,1
25287,6,2,440,1
25288,6,2,530,1
25289,6,2,388,1
25290,6,1,431,0
25291,6,2,376,1
25292,6,1,460,0
25293,6,1,388,1
25294,6,2,439,1
25295,6,2,392,1
25296,6,1,452,1
25297,6,2,540,1
25298,6,2,470,1
25299,6,2,422,1
25300,6,1,448,1
25301,6,1,385,1
25302,6,1,332,1
25303,6,1,426,1
25304,6,1,412,1
25305,6,1,382,1
25306,6,1,361,1
25307,6,1,429,1
25308,6,2,510,1
25309,6,2,489,1
25310,6,1,424,1
25311,6,2,426,1
25408,6,1,454,1
25409,6,1,310,1
25410,6,1,284,1
25411,6,2,476,1
25412,6,1,380,1
25413,6,1,311,1
25414,6,2,397,0
25415,6,1,368,1
25416,6,2,340,0
25417,6,1,353,1
25418,6,1,446,1
25419,6,2,454,1
25420,6,1,455,1
25421,6,2,408,1
25422,6,2,466,1
25423,6,2,386,1
25424,6,2,438,1
25425,6,1,439,1
25426,6,2,440,1
25427,6,2,466,1
25428,6,2,369,1
25429,6,2,341,1
25430,6,1,298,1
25431,6,1,305,0
25432,6,2,463,1
25433,6,1,431,1
25434,6,2,545,1
25435,6,2,402,1
25436,6,1,372,1
25437,6,1,496,1
25438,6,2,503,1
25439,6,1,314,1
25536,6,2,396,1
25537,6,2,287,0
25538,6,1,374,1
25539,6,2,450,1
25540,6,2,275,0
25541,6,1,395,1
25542,6,1,333,1
25543,6,1,282,1
25544,6,2,385,1
25545,6,1,357,1
25546,6,2,385,1
25547,6,1,269,1
25548,6,1,372,0
25549,6,1,360,1
25550,6,2,236,0
25551,6,2,374,0
25552,6,1,394,1
25553,6,2,476,1
25554,6,2,332,1
25555,6,1,489,1
25556,6,1,384,1
25557,6,2,508,1
25558,6,2,423,1
25559,6,1,441,1
25560,6,2,522,1
25561,6,1,373,1
25562,6,2,329,1
25563,6,2,406,1
25564,6,2,337,1
25565,6,1,462,1
25566,6,1,446,1
25567,6,1,367,1
25664,6,1,446,1
25665,6,1,271,1
25666,6,2,215,0
25667,6,2,424,1
25668,6,2,330,1
25669,6,2,304,1
25670,6,1,446,0
25671,6,1,423,1
25672,6,1,281,1
25673,6,2,488,1
25674,6,1,408,1
25675,6,2,450,1
25676,6,2,571,1
25677,6,2,388,1
25678,6,1,343,1
25679,6,1,308,1
25680,6,1,274,1
25681,6,2,274,0
25682,6,2,210,1
25683,6,2,404,1
25684,6,2,303,0
25685,6,1,317,1
25686,6,1,339,1
25687,6,1,265,1
25688,6,2,361,1
25689,6,1,285,0
25690,6,1,404,1
25691,6,2,367,1
25692,6,1,291,1
25693,6,2,450,1
25694,6,2,315,0
25695,6,1,241,1
25792,6,2,426,1
25793,6,2,283,0
25794,6,1,387,1
25795,6,1,254,1
25796,6,2,263,0
25797,6,1,327,1
25798,6,2,412,1
25799,6,2,302,0
25800,6,1,436,1
25801,6,1,350,1
25802,6,2,274,0
25803,6,1,378,1
25804,6,1,302,1
25805,6,1,332,1
25806,6,1,322,1
25807,6,2,368,0
25808,6,2,308,1
25809,6,1,418,1
25810,6,2,436,1
25811,6,1,390,1
25812,6,2,417,1
25813,6,2,323,0
25814,6,1,440,1
25815,6,2,409,1
25816,6,1,427,1
25817,6,2,413,1
25818,6,1,495,1
25819,6,1,349,1
25820,6,1,282,1
25821,6,2,361,0
25822,6,2,341,1
25823,6,2,339,1
25920,6,2,352,1
25921,6,2,332,1
25922,6,1,306,0
25923,6,1,232,0
25924,6,1,385,1
25925,6,1,373,1
25926,6,2,297,0
25927,6,2,366,1
25928,6,1,290,1
25929,6,2,282,0
25930,6,1,289,1
25931,6,1,408,1
25932,6,2,371,1
25933,6,2,351,0
25934,6,2,420,1
25935,6,1,438,1
25936,6,1,399,1
25937,6,1,338,1
25938,6,1,343,1
25939,6,2,460,1
25940,6,1,308,1
25941,6,2,354,1
25942,6,2,399,0
25943,6,2,361,1
25944,6,2,325,0
25945,6,1,315,1
25946,6,2,305,1
25947,6,1,272,0
25948,6,2,336,1
25949,6,2,325,1
25950,6,1,331,0
25951,6,1,441,1
26144,7,1,427,1
26145,7,1,317,1
26146,7,2,387,1
26147,7,2,534,1
26148,7,1,488,1
26149,7,2,367,0
26150,7,2,427,1
26151,7,1,421,1
26152,7,1,503,1
26153,7,2,490,1
26154,7,1,385,1
26155,7,2,388,1
26156,7,1,335,1
26157,7,2,476,1
26158,7,2,363,1
26159,7,2,319,0
26160,7,1,365,1
26161,7,1,377,1
26162,7,1,357,1
26163,7,1,361,1
26164,7,1,373,1
26165,7,2,481,1
26166,7,2,409,1
26167,7,2,451,1
26168,7,1,468,1
26169,7,2,340,1
26170,7,2,465,1
26171,7,2,433,1
26172,7,2,363,1
26173,7,1,375,1
26174,7,1,395,1
26175,7,1,405,1
26272,7,1,408,1
26273,7,1,491,1
26274,7,2,466,1
26275,7,2,514,1
26276,7,1,525,1
26277,7,2,415,1
26278,7,1,457,1
26279,7,1,474,1
26280,7,2,418,1
26281,7,2,428,1
26282,7,2,365,1
26283,7,2,529,1
26284,7,2,451,1
26285,7,1,460,1
26286,7,2,476,1
26287,7,1,499,1
26288,7,2,466,1
26289,7,1,458,1
26290,7,2,515,1
26291,7,1,381,1
26292,7,2,473,1
26293,7,2,449,1
26294,7,1,385,1
26295,7,2,525,1
26296,7,2,415,1
26297,7,1,385,1
26298,7,1,364,1
26299,7,1,344,1
26300,7,1,453,1
26301,7,1,294,1
26302,7,1,300,1
26303,7,2,315,1
26400,7,1,477,1
26401,7,2,501,1
26402,7,2,440,1
26403,7,2,425,1
26404,7,2,355,1
26405,7,2,432,1
26406,7,1,417,1
26407,7,2,411,1
26408,7,1,477,1
26409,7,2,469,1
26410,7,1,389,1
26411,7,1,480,1
26412,7,2,503,1
26413,7,2,450,1
26414,7,2,395,1
26415,7,2,509,1
26416,7,1,471,1
26417,7,1,391,1
26418,7,1,451,1
26419,7,2,475,1
26420,7,1,467,1
26421,7,1,379,1
26422,7,2,415,1
26423,7,2,425,1
26424,7,1,379,1
26425,7,1,478,1
26426,7,2,493,1
26427,7,2,428,1
26428,7,1,437,1
26429,7,1,551,1
26430,7,1,416,1
26431,7,1,394,1
26528,7,1,391,1
26529,7,2,410,1
26530,7,1,540,1
26531,7,1,406,1
26532,7,1,337,1
26533,7,1,446,1
26534,7,1,351,1
26535,7,2,427,1
26536,7,1,349,1
26537,7,1,385,1
26538,7,2,405,1
26539,7,2,503,1
26540,7,1,483,1
26541,7,2,450,1
26542,7,2,523,1
26543,7,2,501,1
26544,7,2,448,1
26545,7,1,425,1
26546,7,2,419,1
26547,7,1,349,1
26548,7,2,418,1
26549,7,1,396,1
26550,7,2,486,1
26551,7,1,334,1
26552,7,2,355,1
26553,7,1,368,1
26554,7,1,396,1
26555,7,2,422,1
26556,7,2,415,1
26557,7,2,473,1
26558,7,1,393,1
26559,7,2,484,1
26656,7,2,452,1
26657,7,2,477,1
26658,7,1,460,1
26659,7,2,468,1
26660,7,2,444,1
26661,7,2,381,1
26662,7,2,424,1
26663,7,1,538,1
26664,7,2,500,1
26665,7,2,475,1
26666,7,1,411,1
26667,7,1,365,1
26668,7,1,416,1
26669,7,2,434,1
26670,7,2,387,1
26671,7,2,414,1
26672,7,2,432,1
26673,7,1,434,1
26674,7,1,451,1
26675,7,1,372,1
26676,7,1,408,1
26677,7,1,458,1
26678,7,2,491,1
26679,7,1,410,1
26680,7,1,428,1
26681,7,2,430,1
26682,7,1,615,1
26683,7,1,422,1
26684,7,2,400,1
26685,7,1,370,1
26686,7,2,430,1
26687,7,1,432,1
26784,7,2,395,1
26785,7,1,334,1
26786,7,2,555,1
26787,7,1,485,1
26788,7,2,508,1
26789,7,1,535,1
26790,7,2,409,1
26791,7,2,356,1
26792,7,2,384,1
26793,7,1,348,1
26794,7,2,400,1
26795,7,2,395,1
26796,7,1,326,0
26797,7,1,308,1
26798,7,1,290,1
26799,7,1,290,1
26800,7,1,321,1
26801,7,1,319,1
26802,7,2,277,1
26803,7,1,236,0
26804,7,1,341,1
26805,7,1,307,0
26806,7,2,337,1
26807,7,2,383,1
26808,7,2,290,1
26809,7,1,321,0
26810,7,2,271,0
26811,7,1,287,1
26812,7,2,294,1
26813,7,2,301,1
26814,7,2,403,1
26815,7,1,341,0
27104,8,1,453,1
27105,8,1,374,1
27106,8,1,314,1
27107,8,2,496,1
27108,8,2,383,1
27109,8,1,386,1
27110,8,2,341,0
27111,8,2,379,1
27112,8,2,302,1
27113,8,2,293,1
27114,8,2,332,1
27115,8,1,241,0
27116,8,2,387,1
27117,8,1,382,1
27118,8,1,353,1
27119,8,1,374,0
27120,8,2,426,1
27121,8,2,348,1
27122,8,1,408,1
27123,8,1,275,1
27124,8,2,347,1
27125,8,1,400,1
27126,8,1,353,1
27127,8,1,422,1
27128,8,2,336,0
27129,8,1,325,0
27130,8,1,651,1
27131,8,2,409,1
27132,8,2,483,1
27133,8,2,371,0
27134,8,2,343,1
27135,8,1,291,0
27232,8,1,518,1
27233,8,2,568,1
27234,8,2,345,1
27235,8,2,350,1
27236,8,2,386,1
27237,8,2,326,1
27238,8,2,220,1
27239,8,1,318,0
27240,8,1,228,0
27241,8,1,349,0
27242,8,1,337,1
27243,8,1,279,1
27244,8,1,357,1
27245,8,1,330,1
27246,8,2,423,1
27247,8,2,305,0
27248,8,1,352,1
27249,8,1,300,1
27250,8,2,683,1
27251,8,1,431,1
27252,8,2,384,1
27253,8,2,387,1
27254,8,2,439,1
27255,8,1,384,1
27256,8,1,339,1
27257,8,1,289,1
27258,8,2,344,1
27259,8,2,341,0
27260,8,2,250,0
27261,8,1,347,1
27262,8,2,343,1
27263,8,1,332,0
27360,8,2,549,1
27361,8,2,445,1
27362,8,1,477,1
27363,8,2,365,1
27364,8,1,385,0
27365,8,2,588,1
27366,8,2,444,1
27367,8,1,461,1
27368,8,1,405,0
27369,8,1,351,0
27370,8,2,508,1
27371,8,1,455,1
27372,8,2,432,1
27373,8,1,345,1
27374,8,1,382,1
27375,8,2,441,1
27376,8,2,651,1
27377,8,1,392,1
27378,8,1,347,1
27379,8,1,384,1
27380,8,2,427,1
27381,8,1,428,1
27382,8,1,430,1
27383,8,1,343,1
27384,8,2,476,1
27385,8,2,452,1
27386,8,1,372,1
27387,8,2,328,0
27388,8,2,358,0
27389,8,1,370,1
27390,8,2,870,1
27391,8,2,403,1
27488,8,1,420,1
27489,8,2,390,1
27490,8,2,441,1
27491,8,2,411,1
27492,8,2,477,1
27493,8,2,340,1
27494,8,2,313,1
27495,8,2,487,1
27496,8,2,327,0
27497,8,1,532,1
27498,8,2,574,1
27499,8,1,478,1
27500,8,1,486,0
27501,8,1,373,0
27502,8,1,393,1
27503,8,2,340,0
27504,8,1,329,1
27505,8,1,414,1
27506,8,1,376,1
27507,8,2,532,1
27508,8,1,486,1
27509,8,1,309,1
27510,8,1,332,1
27511,8,1,361,1
27512,8,2,348,0
27513,8,2,441,1
27514,8,1,434,0
27515,8,2,491,1
27516,8,1,499,1
27517,8,2,457,1
27518,8,2,338,1
27519,8,1,407,1
27616,8,1,433,1
27617,8,2,386,0
27618,8,1,429,1
27619,8,2,383,1
27620,8,1,474,1
27621,8,1,346,1
27622,8,1,335,1
27623,8,1,348,1
27624,8,1,281,1
27625,8,2,335,0
27626,8,1,412,0
27627,8,1,486,1
27628,8,1,334,1
27629,8,2,619,0
27630,8,2,449,1
27631,8,2,322,0
27632,8,2,400,1
27633,8,2,411,1
27634,8,2,677,1
27635,8,2,385,1
27636,8,1,316,1
27637,8,2,282,0
27638,8,2,273,0
27639,8,2,449,1
27640,8,2,386,1
27641,8,1,397,1
27642,8,1,408,1
27643,8,2,547,1
27644,8,1,388,1
27645,8,2,471,1
27646,8,1,359,1
27647,8,1,364,1
27744,8,2,417,1
27745,8,2,323,1
27746,8,1,313,0
27747,8,1,375,1
27748,8,2,387,0
27749,8,1,374,1
27750,8,2,354,0
27751,8,1,447,1
27752,8,1,336,1
27753,8,2,445,1
27754,8,1,430,1
27755,8,2,495,1
27756,8,1,414,1
27757,8,1,424,1
27758,8,2,394,0
27759,8,2,644,1
27760,8,1,561,1
27761,8,1,314,1
27762,8,2,328,0
27763,8,1,333,0
27764,8,1,307,1
27765,8,1,353,1
27766,8,2,422,1
27767,8,2,328,1
27768,8,1,405,1
27769,8,2,320,0
27770,8,2,382,1
27771,8,2,465,1
27772,8,1,593,0
27773,8,1,320,1
27774,8,2,438,1
27775,8,2,304,1
27904,9,2,528,0
27905,9,1,290,1
27906,9,2,417,0
27907,9,1,292,1
27908,9,1,323,1
27909,9,2,353,0
27910,9,1,349,1
27911,9,1,394,1
27912,9,1,477,1
27913,9,1,332,1
27914,9,2,265,0
27915,9,2,529,1
27916,9,1,331,1
27917,9,2,385,0
27918,9,2,332,0
27919,9,2,369,0
27920,9,1,389,1
27921,9,2,640,1
27922,9,2,358,0
27923,9,1,299,1
27924,9,2,322,0
27925,9,1,352,1
27926,9,1,380,1
27927,9,2,328,0
27928,9,1,413,1
27929,9,1,447,1
27930,9,2,336,1
27931,9,2,269,0
27932,9,1,405,1
27933,9,2,456,0
27934,9,2,360,1
27935,9,1,348,1
28032,9,2,347,0
28033,9,2,264,0
28034,9,1,328,1
28035,9,2,197,1
28036,9,2,136,0
28037,9,1,309,1
28038,9,1,284,1
28039,9,1,347,1
28040,9,2,352,1
28041,9,2,339,0
28042,9,1,273,1
28043,9,1,385,1
28044,9,1,204,0
28045,9,1,351,1
28046,9,2,283,0
28047,9,1,290,1
28048,9,1,490,1
28049,9,2,345,0
28050,9,2,414,1
28051,9,1,368,1
28052,9,1,492,1
28053,9,1,395,1
28054,9,1,334,1
28055,9,2,387,1
28056,9,1,390,0
28057,9,2,386,1
28058,9,2,397,1
28059,9,2,488,1
28060,9,2,431,1
28061,9,1,384,1
28062,9,2,436,1
28063,9,2,493,0
28160,9,1,340,1
28161,9,2,249,0
28162,9,1,34,1
28163,9,2,419,1
28164,9,2,317,0
28165,9,2,419,1
28166,9,1,389,1
28167,9,1,361,1
28168,9,1,221,0
28169,9,1,159,1
28170,9,2,187,0
28171,9,2,30,0
28172,9,2,304,0
28173,9,1,38,0
28174,9,1,431,1
28175,9,2,313,0
28176,9,1,191,1
28177,9,2,354,0
28178,9,2,407,1
28179,9,1,385,0
28180,9,1,277,1
28181,9,2,268,1
28182,9,1,244,1
28183,9,1,196,0
28184,9,2,111,0
28185,9,2,493,1
28186,9,2,396,1
28187,9,2,214,1
28188,9,1,40,0
28189,9,1,217,0
28190,9,1,83,1
28191,9,2,339,0
28288,9,2,220,1
28289,9,1,366,0
28290,9,2,226,0
28291,9,1,556,0
28292,9,1,245,0
28293,9,1,198,1
28294,9,1,136,1
28295,9,2,94,1
28296,9,1,316,1
28297,9,1,274,0
28298,9,2,322,0
28299,9,2,288,1
28300,9,1,247,1
28301,9,2,320,0
28302,9,2,414,1
28303,9,2,304,0
28304,9,1,191,0
28305,9,2,138,0
28306,9,1,263,1
28307,9,2,287,0
28308,9,2,214,0
28309,9,2,400,0
28310,9,1,402,1
28311,9,2,212,1
28312,9,1,230,1
28313,9,2,224,1
28314,9,2,258,1
28315,9,1,394,1
28316,9,2,205,0
28317,9,1,336,0
28318,9,1,93,1
28319,9,1,355,1
28416,9,2,387,0
28417,9,1,375,1
28418,9,2,43,1
28419,9,1,388,0
28420,9,1,391,1
28421,9,1,178,1
28422,9,2,78,0
28423,9,1,117,1
28424,9,2,187,0
28425,9,1,197,0
28426,9,2,184,0
28427,9,1,331,1
28428,9,2,64,1
28429,9,2,168,1
28430,9,2,12,1
28431,9,2,350,0
28432,9,1,467,1
28433,9,1,387,1
28434,9,2,270,0
28435,9,2,190,1
28436,9,2,65,0
28437,9,2,145,0
28438,9,1,310,1
28439,9,1,380,1
28440,9,2,199,0
28441,9,1,41,0
28442,9,1,339,0
28443,9,1,384,0
28444,9,1,203,0
28445,9,2,398,1
28446,9,2,225,0
28447,9,1,59,1
28544,9,2,378,1
28545,9,2,230,0
28546,9,2,95,1
