TrialIndex,Subject,Congruence,ResponseTime,Correct
192,1,2,617,1
193,1,1,539,1
194,1,1,504,1
195,1,1,519,1
196,1,1,389,1
197,1,1,336,1
198,1,2,581,1
199,1,1,480,1
200,1,1,352,1
201,1,2,628,1
202,1,1,398,1
203,1,2,384,1
204,1,1,444,1
205,1,2,604,1
206,1,2,495,1
207,1,2,510,1
208,1,1,428,1
209,1,2,453,1
210,1,2,438,1
211,1,2,471,1
212,1,2,479,1
213,1,2,486,1
214,1,1,358,1
215,1,2,450,1
216,1,1,459,0
217,1,1,400,1
218,1,1,411,1
219,1,1,373,1
220,1,2,417,0
221,1,1,391,1
222,1,2,387,1
223,1,2,446,1
320,1,1,383,1
321,1,1,370,1
322,1,1,398,1
323,1,1,425,1
324,1,2,419,0
325,1,1,553,1
326,1,2,566,1
327,1,1,346,1
328,1,2,518,1
329,1,2,508,1
330,1,2,467,1
331,1,2,403,1
332,1,1,494,0
333,1,2,465,1
334,1,2,497,1
335,1,2,424,1
336,1,1,554,1
337,1,1,407,0
338,1,1,646,1
339,1,2,502,1
340,1,2,485,1
341,1,1,388,1
342,1,2,504,1
343,1,2,494,1
344,1,2,508,1
345,1,1,547,1
346,1,1,488,1
347,1,1,559,1
348,1,2,499,1
349,1,2,474,1
350,1,1,418,1
351,1,1,460,1
448,1,1,622,1
449,1,1,400,1
450,1,2,611,1
451,1,2,500,1
452,1,1,698,1
453,1,1,577,1
454,1,1,437,1
455,1,2,470,1
456,1,1,526,1
457,1,2,507,1
458,1,2,442,1
459,1,1,571,1
460,1,2,471,1
461,1,1,623,1
462,1,1,593,1
463,1,1,460,1
464,1,2,540,1
465,1,1,594,1
466,1,2,492,1
467,1,2,396,1
468,1,2,438,1
469,1,2,536,1
470,1,2,525,1
471,1,1,499,0
472,1,2,478,1
473,1,2,494,1
474,1,2,492,1
475,1,2,412,1
476,1,1,534,1
477,1,1,483,1
478,1,1,370,1
479,1,1,382,1
576,1,1,458,1
577,1,2,475,1
578,1,2,539,1
579,1,1,344,0
580,1,1,369,1
581,1,1,493,1
582,1,2,388,0
583,1,1,452,1
584,1,1,452,1
585,1,2,485,1
586,1,2,436,0
587,1,1,418,1
588,1,1,420,1
589,1,1,422,1
590,1,2,384,1
591,1,1,340,1
592,1,2,577,1
593,1,2,540,1
594,1,1,482,1
595,1,2,673,1
596,1,2,577,1
597,1,1,708,1
598,1,2,586,1
599,1,2,566,1
600,1,2,690,1
601,1,1,673,1
602,1,2,817,1
603,1,2,539,1
604,1,1,529,1
605,1,1,526,1
606,1,1,507,1
607,1,2,562,1
704,1,2,535,1
705,1,2,444,1
706,1,1,453,1
707,1,1,437,1
708,1,2,543,1
709,1,1,484,0
710,1,2,471,1
711,1,2,519,1
712,1,2,445,1
713,1,1,446,1
714,1,1,431,1
715,1,2,432,1
716,1,1,609,0
717,1,1,456,1
718,1,2,497,1
719,1,1,591,1
720,1,2,563,1
721,1,1,543,1
722,1,2,492,1
723,1,1,467,1
724,1,1,403,1
725,1,2,438,1
726,1,2,471,1
727,1,1,631,1
728,1,1,480,1
729,1,2,552,1
730,1,1,644,1
731,1,2,645,1
732,1,1,502,0
733,1,2,425,1
734,1,1,443,1
735,1,2,684,1
832,1,1,451,1
833,1,2,467,1
834,1,2,411,1
835,1,2,365,1
836,1,1,601,1
837,1,2,516,1
838,1,1,426,1
839,1,1,484,1
840,1,2,707,1
841,1,1,506,1
842,1,1,360,1
843,1,2,476,1
844,1,1,556,1
845,1,2,544,1
846,1,2,461,1
847,1,2,517,1
848,1,2,619,1
849,1,2,629,1
850,1,2,447,1
851,1,2,510,1
852,1,1,516,1
853,1,1,538,1
854,1,1,392,1
855,1,1,371,1
856,1,1,503,1
857,1,2,502,1
858,1,2,468,1
859,1,1,477,1
860,1,1,476,1
861,1,2,387,0
862,1,1,419,1
863,1,1,445,1
1024,10,2,503,1
1025,10,1,342,1
1026,10,1,434,1
1027,10,2,308,0
1028,10,1,519,1
1029,10,2,461,1
1030,10,2,333,1
1031,10,1,562,1
1032,10,1,462,1
1033,10,1,310,1
1034,10,1,364,1
1035,10,1,384,1
1036,10,2,452,1
1037,10,2,652,1
1038,10,1,341,1
1039,10,1,354,1
1040,10,2,479,1
1041,10,2,462,1
1042,10,2,454,1
1043,10,1,447,1
1044,10,1,368,1
1045,10,1,532,1
1046,10,2,497,1
1047,10,2,408,1
1048,10,2,346,1
1049,10,1,431,1
1050,10,1,376,1
1051,10,1,316,1
1052,10,2,418,1
1053,10,2,388,1
1054,10,2,351,1
1055,10,2,468,1
1152,10,1,435,1
1153,10,1,364,1
1154,10,1,344,1
1155,10,2,389,0
1156,10,2,412,1
1157,10,2,438,1
1158,10,2,552,1
1159,10,1,348,0
1160,10,1,454,1
1161,10,1,470,1
1162,10,1,566,1
1163,10,2,426,1
1164,10,2,412,1
1165,10,1,310,0
1166,10,2,464,1
1167,10,2,416,1
1168,10,2,490,1
1169,10,2,418,1
1170,10,1,316,1
1171,10,2,386,1
1172,10,2,405,1
1173,10,1,424,1
1174,10,2,426,1
1175,10,1,420,1
1176,10,1,406,1
1177,10,2,448,1
1178,10,1,569,1
1179,10,2,333,1
1180,10,1,306,1
1181,10,2,441,1
1182,10,1,338,1
1183,10,1,384,1
1280,10,1,342,1
1281,10,2,347,1
1282,10,2,424,1
1283,10,1,354,1
1284,10,2,334,1
1285,10,2,340,1
1286,10,2,393,0
1287,10,2,440,1
1288,10,2,338,1
1289,10,2,471,1
1290,10,1,479,1
1291,10,1,454,1
1292,10,2,359,1
1293,10,2,356,1
1294,10,2,352,1
1295,10,2,541,1
1296,10,1,442,1
1297,10,1,364,1
1298,10,1,360,1
1299,10,1,403,1
1300,10,1,438,1
1301,10,2,520,1
1302,10,1,382,1
1303,10,1,433,1
1304,10,2,594,1
1305,10,1,421,1
1306,10,2,407,1
1307,10,1,418,1
1308,10,1,388,1
1309,10,2,415,1
1310,10,1,376,1
1311,10,1,499,1
1408,10,2,345,0
1409,10,2,370,1
1410,10,2,398,1
1411,10,2,385,1
1412,10,2,380,1
1413,10,2,375,1
1414,10,1,403,1
1415,10,1,518,1
1416,10,2,348,1
1417,10,1,489,1
1418,10,1,368,1
1419,10,2,468,1
1420,10,1,484,1
1421,10,1,331,1
1422,10,2,417,1
1423,10,2,387,1
1424,10,1,446,1
1425,10,1,319,1
1426,10,2,437,1
1427,10,1,390,1
1428,10,1,441,1
1429,10,1,339,1
1430,10,1,344,1
1431,10,1,397,0
1432,10,1,419,1
1433,10,2,405,1
1434,10,2,432,1
1435,10,2,417,1
1436,10,1,451,1
1437,10,1,364,1
1438,10,2,424,1
1439,10,2,362,1
1536,10,2,403,1
1537,10,2,350,1
1538,10,1,458,1
1539,10,1,443,1
1540,10,1,412,1
1541,10,1,478,1
1542,10,1,421,1
1543,10,2,431,1
1544,10,1,488,1
1545,10,1,400,1
1546,10,2,450,1
1547,10,2,403,1
1548,10,1,398,1
1549,10,2,368,1
1550,10,2,388,1
1551,10,1,488,1
1552,10,2,526,1
1553,10,2,435,1
1554,10,1,373,1
1555,10,1,433,1
1556,10,1,410,1
1557,10,2,420,1
1558,10,2,406,1
1559,10,2,385,1
1560,10,2,468,1
1561,10,1,348,1
1562,10,1,409,0
1563,10,2,488,1
1564,10,2,407,1
1565,10,1,442,1
1566,10,2,443,1
1567,10,1,492,1
1664,10,2,536,1
1665,10,1,429,1
1666,10,2,390,1
1667,10,2,466,1
1668,10,1,442,1
1669,10,1,371,1
1670,10,1,431,0
1671,10,2,348,1
1672,10,2,416,1
1673,10,1,466,1
1674,10,2,394,1
1675,10,1,397,1
1676,10,2,328,1
1677,10,2,421,1
1678,10,2,439,1
1679,10,2,376,1
1680,10,1,684,1
1681,10,2,475,1
1682,10,1,427,1
1683,10,1,397,1
1684,10,1,423,1
1685,10,1,393,1
1686,10,1,388,1
1687,10,1,431,1
1688,10,2,361,1
1689,10,2,405,1
1690,10,1,495,1
1691,10,2,390,0
1692,10,2,374,1
1693,10,2,450,1
1694,10,1,362,1
1695,10,1,510,1
2016,11,2,489,1
2017,11,2,457,1
2018,11,2,450,1
2019,11,2,362,1
2020,11,2,470,1
2021,11,1,454,1
2022,11,1,423,1
2023,11,1,448,1
2024,11,1,489,1
2025,11,1,408,1
2026,11,2,419,1
2027,11,2,477,1
2028,11,2,364,1
2029,11,2,392,1
2030,11,2,371,1
2031,11,2,463,1
2032,11,1,495,1
2033,11,1,510,1
2034,11,1,412,1
2035,11,1,350,1
2036,11,2,547,1
2037,11,1,327,1
2038,11,1,397,1
2039,11,1,447,1
2040,11,2,464,1
2041,11,1,312,1
2042,11,2,462,1
2043,11,2,382,1
2044,11,1,457,1
2045,11,1,402,1
2046,11,1,381,1
2047,11,2,576,1
2144,11,2,471,1
2145,11,2,439,1
2146,11,1,849,1
2147,11,2,465,1
2148,11,1,545,1
2149,11,2,486,1
2150,11,1,366,1
2151,11,2,466,1
2152,11,1,426,1
2153,11,2,692,1
2154,11,1,395,1
2155,11,2,510,1
2156,11,1,436,1
2157,11,1,389,1
2158,11,2,376,1
2159,11,1,436,1
2160,11,2,413,1
2161,11,2,543,1
2162,11,1,580,1
2163,11,1,399,1
2164,11,1,362,1
2165,11,2,446,1
2166,11,2,662,1
2167,11,1,463,1
2168,11,2,495,1
2169,11,2,381,0
2170,11,1,453,1
2171,11,1,470,1
2172,11,2,526,1
2173,11,2,452,1
2174,11,1,477,1
2175,11,1,404,1
2272,11,2,501,1
2273,11,2,459,1
2274,11,2,428,1
2275,11,1,589,1
2276,11,1,433,1
2277,11,1,506,1
2278,11,2,473,1
2279,11,1,545,1
2280,11,2,598,1
2281,11,1,520,1
2282,11,1,518,1
2283,11,2,516,1
2284,11,2,474,1
2285,11,1,722,1
2286,11,1,529,1
2287,11,2,526,1
2288,11,1,451,1
2289,11,1,524,1
2290,11,2,506,1
2291,11,1,736,1
2292,11,2,446,1
2293,11,1,422,1
2294,11,2,488,1
2295,11,2,528,1
2296,11,1,541,1
2297,11,2,667,1
2298,11,1,507,1
2299,11,1,537,1
2300,11,2,463,1
2301,11,2,455,1
2302,11,2,511,1
2303,11,1,461,1
2400,11,1,439,1
2401,11,2,616,1
2402,11,2,466,1
2403,11,2,442,1
2404,11,2,435,1
2405,11,1,484,1
2406,11,1,396,1
2407,11,1,414,1
2408,11,1,368,1
2409,11,2,556,1
2410,11,2,425,1
2411,11,2,419,1
2412,11,1,389,1
2413,11,2,480,1
2414,11,1,376,1
2415,11,2,475,1
2416,11,1,475,1
2417,11,2,411,1
2418,11,1,413,1
2419,11,2,479,1
2420,11,2,591,1
2421,11,2,690,1
2422,11,2,593,1
2423,11,1,532,1
2424,11,1,377,1
2425,11,1,493,1
2426,11,1,515,1
2427,11,1,841,1
2428,11,1,491,1
2429,11,2,466,1
2430,11,1,706,1
2431,11,2,513,1
2528,11,1,496,1
2529,11,2,479,1
2530,11,1,686,1
2531,11,2,429,1
2532,11,1,423,1
2533,11,2,457,1
2534,11,2,441,1
2535,11,1,579,1
2536,11,1,414,1
2537,11,1,368,1
2538,11,1,396,1
2539,11,2,391,1
2540,11,2,794,1
2541,11,1,437,1
2542,11,2,718,1
2543,11,1,460,1
2544,11,2,452,1
2545,11,2,469,1
2546,11,2,445,1
2547,11,2,430,1
2548,11,1,423,1
2549,11,2,448,1
2550,11,2,497,1
2551,11,2,472,1
2552,11,1,432,1
2553,11,1,737,1
2554,11,1,398,1
2555,11,1,401,1
2556,11,2,628,1
2557,11,2,389,1
2558,11,1,496,1
2559,11,1,447,1
2656,11,2,507,1
2657,11,2,490,1
2658,11,2,473,1
2659,11,1,569,1
2660,11,2,413,0
2661,11,1,627,1
2662,11,2,693,1
2663,11,1,571,1
2664,11,2,591,1
2665,11,1,515,1
2666,11,2,857,1
2667,11,1,658,1
2668,11,2,530,1
2669,11,2,664,1
2670,11,2,480,1
2671,11,1,535,1
2672,11,1,533,1
2673,11,2,602,1
2674,11,1,573,1
2675,11,1,489,1
2676,11,1,576,1
2677,11,2,588,1
2678,11,2,543,1
2679,11,2,548,1
2680,11,2,496,1
2681,11,2,583,1
2682,11,1,634,1
2683,11,1,548,1
2684,11,1,545,1
2685,11,1,485,1
2686,11,1,597,1
2687,11,1,767,1
2848,12,2,502,1
2849,12,2,381,1
2850,12,2,416,1
2851,12,1,506,1
2852,12,1,417,1
2853,12,2,531,1
2854,12,1,408,1
2855,12,1,699,1
2856,12,1,409,1
2857,12,1,379,1
2858,12,1,391,1
2859,12,1,402,1
2860,12,1,405,1
2861,12,2,463,1
2862,12,2,431,1
2863,12,2,401,1
2864,12,1,363,1
2865,12,1,391,1
2866,12,1,467,1
2867,12,1,419,1
2868,12,2,493,1
2869,12,2,468,1
2870,12,2,476,1
2871,12,1,388,1
2872,12,2,495,1
2873,12,1,422,1
2874,12,2,464,1
2875,12,2,536,1
2876,12,2,469,1
2877,12,1,526,1
2878,12,2,452,1
2879,12,2,380,1
2976,12,1,515,1
2977,12,2,473,1
2978,12,1,449,1
2979,12,2,434,1
2980,12,1,451,1
2981,12,1,460,1
2982,12,2,468,1
2983,12,2,500,1
2984,12,1,467,1
2985,12,1,355,1
2986,12,2,488,1
2987,12,1,439,1
2988,12,2,464,1
2989,12,2,488,1
2990,12,1,424,1
2991,12,1,417,1
2992,12,1,443,1
2993,12,2,579,1
2994,12,2,559,1
2995,12,1,427,1
2996,12,1,437,1
2997,12,2,494,1
2998,12,2,365,1
2999,12,2,481,1
3000,12,2,464,1
3001,12,2,456,1
3002,12,2,401,1
3003,12,1,451,1
3004,12,1,364,1
3005,12,1,384,1
3006,12,1,403,1
3007,12,2,502,1
3104,12,2,558,1
3105,12,1,394,1
3106,12,2,493,1
3107,12,1,588,0
3108,12,2,548,1
3109,12,1,392,1
3110,12,1,500,1
3111,12,1,394,1
3112,12,1,445,1
3113,12,2,486,1
3114,12,1,405,1
3115,12,1,480,1
3116,12,1,455,1
3117,12,1,408,1
3118,12,2,498,1
3119,12,1,481,1
3120,12,2,496,1
3121,12,1,383,1
3122,12,2,418,0
3123,12,1,329,1
3124,12,2,446,1
3125,12,1,519,1
3126,12,2,549,1
3127,12,2,898,1
3128,12,2,416,1
3129,12,2,442,1
3130,12,2,444,1
3131,12,2,412,1
3132,12,2,438,1
3133,12,1,560,1
3134,12,1,468,1
3135,12,2,492,1
3232,12,2,465,1
3233,12,2,465,1
3234,12,1,417,1
3235,12,2,411,1
3236,12,1,421,1
3237,12,2,431,1
3238,12,2,416,1
3239,12,1,458,1
3240,12,1,379,1
3241,12,1,422,1
3242,12,1,400,1
3243,12,1,339,1
3244,12,2,392,1
3245,12,2,419,1
3246,12,2,436,1
3247,12,1,534,1
3248,12,2,419,1
3249,12,2,405,1
3250,12,2,456,1
3251,12,1,416,1
3252,12,1,402,1
3253,12,1,405,1
3254,12,2,456,1
3255,12,2,392,1
3256,12,1,467,1
3257,12,1,403,1
3258,12,2,462,1
3259,12,1,470,1
3260,12,2,518,1
3261,12,1,556,1
3262,12,1,417,1
3263,12,2,523,1
3360,12,1,389,1
3361,12,1,408,1
3362,12,1,395,1
3363,12,1,373,1
3364,12,2,409,1
3365,12,2,475,1
3366,12,2,475,1
3367,12,2,395,1
3368,12,1,478,1
3369,12,1,445,1
3370,12,1,398,1
3371,12,2,473,0
3372,12,1,469,1
3373,12,2,517,1
3374,12,1,435,1
3375,12,2,429,1
3376,12,2,486,1
3377,12,2,429,1
3378,12,2,503,1
3379,12,1,477,1
3380,12,1,589,1
3381,12,1,568,1
3382,12,2,476,1
3383,12,2,556,1
3384,12,2,472,1
3385,12,2,408,1
3386,12,2,435,1
3387,12,2,484,1
3388,12,1,500,1
3389,12,1,426,1
3390,12,1,388,1
3391,12,1,375,1
3488,12,1,374,1
3489,12,2,434,1
3490,12,1,467,1
3491,12,2,403,1
3492,12,2,438,1
3493,12,1,415,1
3494,12,2,489,1
3495,12,2,417,1
3496,12,2,451,1
3497,12,2,371,1
3498,12,1,583,1
3499,12,1,371,1
3500,12,1,407,1
3501,12,1,385,1
3502,12,1,421,1
3503,12,2,463,1
3504,12,2,479,1
3505,12,1,358,1
3506,12,2,395,1
3507,12,2,429,1
3508,12,1,447,1
3509,12,1,319,1
3510,12,1,357,1
3511,12,2,570,1
3512,12,2,326,1
3513,12,2,356,1
3514,12,1,313,1
3515,12,2,327,0
3516,12,2,481,1
3517,12,1,408,1
3518,12,1,378,1
3519,12,1,341,1
3776,13,1,503,1
3777,13,2,462,1
3778,13,2,486,1
3779,13,1,350,1
3780,13,2,418,1
3781,13,2,404,1
3782,13,1,399,1
3783,13,1,338,1
3784,13,1,335,1
3785,13,2,388,1
3786,13,2,391,1
3787,13,2,451,1
3788,13,1,707,1
3789,13,2,442,1
3790,13,2,388,1
3791,13,2,327,1
3792,13,1,388,1
3793,13,2,343,0
3794,13,1,321,1
3795,13,1,303,1
3796,13,1,413,1
3797,13,1,279,1
3798,13,2,390,1
3799,13,1,578,1
3800,13,1,301,1
3801,13,1,300,1
3802,13,2,450,1
3803,13,1,651,1
3804,13,2,436,1
3805,13,2,373,1
3806,13,2,449,1
3807,13,1,370,1
3904,13,2,425,1
3905,13,2,347,1
3906,13,1,320,1
3907,13,2,293,0
3908,13,2,369,1
3909,13,2,405,1
3910,13,2,431,1
3911,13,2,505,1
3912,13,2,439,1
3913,13,1,409,1
3914,13,2,459,1
3915,13,2,436,1
3916,13,1,389,1
3917,13,2,489,1
3918,13,2,408,1
3919,13,1,531,1
3920,13,1,352,1
3921,13,1,621,1
3922,13,1,359,1
3923,13,2,419,1
3924,13,1,381,1
3925,13,1,425,1
3926,13,1,363,1
3927,13,2,558,1
3928,13,1,370,1
3929,13,1,358,1
3930,13,1,315,1
3931,13,1,321,1
3932,13,1,295,1
3933,13,2,389,1
3934,13,2,377,1
3935,13,1,316,1
4032,13,1,491,1
4033,13,1,331,1
4034,13,2,344,1
4035,13,2,573,1
4036,13,1,393,1
4037,13,1,380,1
4038,13,2,407,1
4039,13,1,426,1
4040,13,2,388,1
4041,13,2,310,1
4042,13,1,396,1
4043,13,1,303,1
4044,13,1,382,1
4045,13,2,449,1
4046,13,2,474,1
4047,13,1,450,1
4048,13,2,386,1
4049,13,2,342,1
4050,13,2,339,1
4051,13,1,400,1
4052,13,1,395,1
4053,13,1,414,1
4054,13,2,376,1
4055,13,2,388,1
4056,13,2,327,1
4057,13,2,380,1
4058,13,2,391,1
4059,13,2,467,1
4060,13,1,379,1
4061,13,1,342,1
4062,13,1,363,1
4063,13,1,359,1
4160,13,2,460,1
4161,13,2,332,1
4162,13,1,297,1
4163,13,2,496,1
4164,13,1,479,1
4165,13,1,294,1
4166,13,1,341,1
4167,13,1,266,1
4168,13,2,442,1
4169,13,2,363,1
4170,13,1,567,1
4171,13,2,411,1
4172,13,1,549,1
4173,13,2,394,1
4174,13,1,348,1
4175,13,2,449,1
4176,13,2,402,1
4177,13,2,516,1
4178,13,1,354,1
4179,13,2,327,1
4180,13,1,348,1
4181,13,1,313,1
4182,13,1,327,1
4183,13,1,364,1
4184,13,2,456,1
4185,13,2,425,1
4186,13,2,347,1
4187,13,1,368,1
4188,13,1,332,1
4189,13,2,401,1
4190,13,2,420,1
4191,13,1,462,1
4288,13,2,418,1
4289,13,1,396,1
4290,13,1,319,1
4291,13,2,317,0
4292,13,2,344,1
4293,13,1,404,1
4294,13,2,447,1
4295,13,2,424,1
4296,13,1,490,1
4297,13,1,345,1
4298,13,1,358,1
4299,13,1,434,1
4300,13,2,580,1
4301,13,2,471,1
4302,13,2,399,1
4303,13,1,418,1
4304,13,1,420,1
4305,13,2,414,1
4306,13,2,400,1
4307,13,2,402,1
4308,13,1,373,1
4309,13,1,401,1
4310,13,1,372,1
4311,13,1,359,1
4312,13,2,420,1
4313,13,2,750,1
4314,13,2,427,1
4315,13,2,452,1
4316,13,2,485,1
4317,13,1,428,1
4318,13,1,374,1
4319,13,1,322,1
4416,13,2,719,1
4417,13,2,341,1
4418,13,2,338,1
4419,13,1,488,1
4420,13,2,343,1
4421,13,2,276,1
4422,13,2,372,1
4423,13,1,376,1
4424,13,1,316,1
4425,13,1,314,1
4426,13,1,368,1
4427,13,2,459,1
4428,13,2,356,1
4429,13,1,329,1
4430,13,1,366,1
4431,13,1,298,1
4432,13,2,409,1
4433,13,2,379,1
4434,13,1,687,1
4435,13,1,438,1
4436,13,1,423,1
4437,13,1,481,1
4438,13,1,337,1
4439,13,2,517,1
4440,13,2,387,1
4441,13,2,358,1
4442,13,1,507,1
4443,13,1,338,1
4444,13,1,383,1
4445,13,2,378,1
4446,13,2,406,1
4447,13,2,352,1
4608,14,2,568,1
4609,14,1,420,1
4610,14,1,574,1
4611,14,1,498,1
4612,14,2,601,1
4613,14,1,531,1
4614,14,1,505,1
4615,14,1,543,1
4616,14,2,564,1
4617,14,1,648,1
4618,14,2,609,1
4619,14,2,644,1
4620,14,1,524,1
4621,14,2,706,1
4622,14,2,649,1
4623,14,1,530,1
4624,14,2,639,1
4625,14,2,609,1
4626,14,1,475,1
4627,14,2,619,1
4628,14,1,534,1
4629,14,2,587,1
4630,14,1,630,1
4631,14,1,520,1
4632,14,2,622,1
4633,14,2,768,1
4634,14,2,620,1
4635,14,1,814,1
4636,14,2,952,1
4637,14,1,597,1
4638,14,1,568,1
4639,14,2,580,1
4736,14,1,560,1
4737,14,1,476,1
4738,14,1,619,1
4739,14,2,605,1
4740,14,1,584,1
4741,14,1,571,1
4742,14,1,527,1
4743,14,2,613,1
4744,14,1,439,1
4745,14,2,528,1
4746,14,2,670,1
4747,14,1,478,1
4748,14,2,581,1
4749,14,1,464,1
4750,14,1,512,1
4751,14,2,606,1
4752,14,1,673,1
4753,14,2,969,1
4754,14,1,997,1
4755,14,1,552,1
4756,14,2,573,1
4757,14,2,1289,1
4758,14,1,449,1
4759,14,2,473,1
4760,14,2,537,1
4761,14,2,615,1
4762,14,2,689,1
4763,14,1,672,1
4764,14,2,816,1
4765,14,2,586,1
4766,14,1,510,1
4767,14,2,444,1
4864,14,1,612,1
4865,14,1,350,1
4866,14,2,426,0
4867,14,2,568,1
4868,14,1,668,1
4869,14,1,556,1
4870,14,2,625,1
4871,14,2,491,1
4872,14,2,603,1
4873,14,1,477,1
4874,14,2,541,1
4875,14,2,658,1
4876,14,1,763,1
4877,14,1,439,1
4878,14,2,712,1
4879,14,2,566,1
4880,14,1,506,0
4881,14,1,518,1
4882,14,1,508,1
4883,14,2,610,1
4884,14,1,436,1
4885,14,1,454,1
4886,14,1,550,1
4887,14,2,539,1
4888,14,1,424,1
4889,14,2,530,1
4890,14,1,624,1
4891,14,2,650,1
4892,14,2,531,1
4893,14,2,552,1
4894,14,2,589,1
4895,14,1,560,1
4992,14,1,614,1
4993,14,1,504,1
4994,14,2,551,1
4995,14,2,468,1
4996,14,1,852,1
4997,14,2,917,1
4998,14,2,1267,1
4999,14,2,451,1
5000,14,2,564,1
5001,14,1,408,1
5002,14,2,570,1
5003,14,1,511,1
5004,14,2,525,1
5005,14,2,1131,1
5006,14,2,536,1
5007,14,1,470,1
5008,14,1,638,1
5009,14,1,511,1
5010,14,1,477,1
5011,14,2,740,1
5012,14,1,498,1
5013,14,2,776,1
5014,14,1,644,1
5015,14,2,957,1
5016,14,1,585,1
5017,14,1,765,1
5018,14,1,649,1
5019,14,2,610,1
5020,14,1,508,1
5021,14,2,546,1
5022,14,2,1047,1
5023,14,1,864,1
5120,14,1,390,1
5121,14,1,529,1
5122,14,2,695,1
5123,14,2,605,1
5124,14,1,568,1
5125,14,2,572,1
5126,14,1,568,1
5127,14,2,484,1
5128,14,1,548,1
5129,14,2,720,1
5130,14,1,534,1
5131,14,1,1028,1
5132,14,2,469,1
5133,14,2,605,1
5134,14,2,664,1
5135,14,2,616,1
5136,14,1,706,1
5137,14,1,505,1
5138,14,2,592,1
5139,14,2,595,0
5140,14,1,426,1
5141,14,2,620,1
5142,14,1,614,1
5143,14,2,728,1
5144,14,1,581,1
5145,14,1,433,1
5146,14,1,442,1
5147,14,1,755,1
5148,14,2,600,1
5149,14,2,755,1
5150,14,1,655,1
5151,14,2,656,1
5248,14,2,548,1
5249,14,2,497,1
5250,14,1,456,1
5251,14,1,576,1
5252,14,1,508,1
5253,14,2,635,1
5254,14,1,612,1
5255,14,2,582,1
5256,14,2,441,1
5257,14,2,443,1
5258,14,1,459,1
5259,14,2,555,1
5260,14,1,1152,1
5261,14,2,621,1
5262,14,2,407,1
5263,14,1,658,1
5264,14,1,474,1
5265,14,1,1075,1
5266,14,1,355,1
5267,14,1,615,1
5268,14,2,825,1
5269,14,1,668,1
5270,14,1,388,1
5271,14,2,543,1
5272,14,1,652,1
5273,14,2,716,1
5274,14,2,507,1
5275,14,1,481,1
5276,14,2,577,1
5277,14,1,556,1
5278,14,2,569,1
5279,14,2,605,1
5600,15,1,937,1
5601,15,1,430,1
5602,15,2,464,1
5603,15,1,304,1
5604,15,2,454,1
5605,15,1,303,1
5606,15,2,558,1
5607,15,1,466,1
5608,15,2,602,1
5609,15,2,597,1
5610,15,1,384,1
5611,15,2,395,1
5612,15,2,326,1
5613,15,1,356,1
5614,15,1,528,1
5615,15,1,510,1
5616,15,1,452,1
5617,15,2,436,1
5618,15,1,470,1
5619,15,2,502,1
5620,15,2,405,1
5621,15,1,447,1
5622,15,1,368,1
5623,15,2,556,1
5624,15,1,464,1
5625,15,1,344,1
5626,15,2,524,1
5627,15,2,514,1
5628,15,2,464,1
5629,15,1,608,1
5630,15,2,443,1
5631,15,2,412,1
5728,15,2,595,1
5729,15,2,374,1
5730,15,2,418,1
5731,15,1,444,1
5732,15,2,524,1
5733,15,2,490,1
5734,15,1,362,1
5735,15,1,494,1
5736,15,1,420,1
5737,15,2,446,1
5738,15,2,407,1
5739,15,2,330,1
5740,15,2,431,1
5741,15,2,424,1
5742,15,1,394,1
5743,15,2,413,1
5744,15,1,375,1
5745,15,1,331,1
5746,15,1,304,1
5747,15,2,319,0
5748,15,1,337,1
5749,15,1,343,1
5750,15,1,308,1
5751,15,1,267,1
5752,15,1,419,1
5753,15,2,405,1
5754,15,2,391,1
5755,15,2,507,1
5756,15,1,905,1
5757,15,1,512,1
5758,15,2,422,1
5759,15,1,480,1
5856,15,2,691,1
5857,15,2,458,1
5858,15,2,483,1
5859,15,2,442,1
5860,15,1,387,1
5861,15,2,390,1
5862,15,2,377,1
5863,15,1,429,1
5864,15,1,414,1
5865,15,2,384,1
5866,15,2,331,0
5867,15,2,533,1
5868,15,1,434,1
5869,15,1,348,1
5870,15,1,464,1
5871,15,2,384,1
5872,15,2,436,1
5873,15,2,461,1
5874,15,2,365,1
5875,15,2,441,1
5876,15,1,626,1
5877,15,2,500,1
5878,15,1,402,1
5879,15,1,413,1
5880,15,1,447,1
5881,15,1,376,1
5882,15,1,340,1
5883,15,1,377,1
5884,15,1,444,1
5885,15,1,477,1
5886,15,1,340,1
5887,15,2,322,0
5984,15,1,814,1
5985,15,2,424,1
5986,15,2,346,1
5987,15,2,374,1
5988,15,1,354,0
5989,15,1,635,1
5990,15,1,477,1
5991,15,1,724,1
5992,15,1,354,1
5993,15,2,439,1
5994,15,2,440,1
5995,15,1,466,1
5996,15,1,386,1
5997,15,2,349,1
5998,15,1,378,1
5999,15,1,357,1
6000,15,1,386,1
6001,15,2,461,1
6002,15,2,421,1
6003,15,2,391,1
6004,15,1,506,0
6005,15,1,317,1
6006,15,1,459,1
6007,15,2,324,1
6008,15,2,378,1
6009,15,1,429,1
6010,15,2,431,1
6011,15,2,383,1
6012,15,2,482,1
6013,15,2,442,1
6014,15,2,467,1
6015,15,1,403,1
6112,15,2,659,1
6113,15,1,483,1
6114,15,2,435,1
6115,15,1,372,1
6116,15,1,360,1
6117,15,1,388,1
6118,15,1,335,1
6119,15,2,501,1
6120,15,2,427,1
6121,15,1,477,1
6122,15,1,500,1
6123,15,1,539,1
6124,15,2,360,0
6125,15,1,401,1
6126,15,2,395,1
6127,15,2,358,1
6128,15,2,435,1
6129,15,2,420,1
6130,15,1,558,1
6131,15,1,395,1
6132,15,2,381,1
6133,15,2,369,1
6134,15,1,469,1
6135,15,1,389,1
6136,15,2,432,1
6137,15,2,489,1
6138,15,1,345,1
6139,15,2,373,1
6140,15,2,337,0
6141,15,2,379,1
6142,15,1,438,1
6143,15,1,400,1
6240,15,1,992,1
6241,15,1,363,1
6242,15,1,423,1
6243,15,2,473,1
6244,15,2,521,1
6245,15,2,455,1
6246,15,1,392,1
6247,15,2,459,1
6248,15,1,452,1
6249,15,2,389,1
6250,15,1,439,1
6251,15,2,504,1
6252,15,2,503,1
6253,15,1,630,1
6254,15,2,463,1
6255,15,1,567,1
6256,15,1,411,1
6257,15,2,525,1
6258,15,2,371,0
6259,15,1,372,1
6260,15,1,464,1
6261,15,2,496,1
6262,15,1,502,1
6263,15,1,429,1
6264,15,1,550,1
6265,15,1,531,1
6266,15,2,424,1
6267,15,2,386,1
6268,15,2,374,1
6269,15,2,426,1
6270,15,2,484,1
6271,15,1,395,1
6432,16,1,523,1
6433,16,1,361,1
6434,16,2,421,1
6435,16,1,303,1
6436,16,2,405,1
6437,16,2,496,1
6438,16,1,495,1
6439,16,1,517,1
6440,16,1,435,1
6441,16,2,469,1
6442,16,2,573,1
6443,16,2,417,1
6444,16,2,435,1
6445,16,2,380,1
6446,16,1,423,1
6447,16,1,425,1
6448,16,1,419,1
6449,16,1,325,1
6450,16,2,403,1
6451,16,2,446,1
6452,16,1,415,0
6453,16,1,445,1
6454,16,1,414,1
6455,16,2,480,1
6456,16,1,439,1
6457,16,2,409,1
6458,16,2,451,1
6459,16,2,404,1
6460,16,2,463,1
6461,16,1,463,1
6462,16,1,407,1
6463,16,2,497,1
6560,16,2,457,1
6561,16,2,433,1
6562,16,2,387,1
6563,16,1,414,0
6564,16,2,453,1
6565,16,2,549,1
6566,16,2,490,1
6567,16,2,409,1
6568,16,1,588,1
6569,16,2,503,1
6570,16,1,462,1
6571,16,1,446,1
6572,16,1,495,1
6573,16,1,421,1
6574,16,2,463,1
6575,16,2,431,1
6576,16,2,473,1
6577,16,1,545,1
6578,16,1,405,1
6579,16,2,456,1
6580,16,2,433,1
6581,16,1,482,1
6582,16,1,617,1
6583,16,2,468,1
6584,16,1,452,1
6585,16,1,492,1
6586,16,1,420,1
6587,16,2,470,1
6588,16,1,438,1
6589,16,1,431,1
6590,16,1,456,1
6591,16,2,465,1
6688,16,1,426,1
6689,16,1,451,1
6690,16,2,468,1
6691,16,1,452,1
6692,16,1,413,1
6693,16,2,415,1
6694,16,2,537,1
6695,16,1,566,1
6696,16,2,618,1
6697,16,2,444,1
6698,16,1,493,1
6699,16,2,419,1
6700,16,1,525,1
6701,16,1,587,1
6702,16,1,399,1
6703,16,2,457,1
6704,16,2,466,1
6705,16,2,426,1
6706,16,1,427,1
6707,16,2,413,1
6708,16,2,383,1
6709,16,2,442,1
6710,16,2,395,1
6711,16,1,478,1
6712,16,2,493,1
6713,16,1,468,1
6714,16,2,428,1
6715,16,2,381,1
6716,16,1,481,1
6717,16,1,424,1
6718,16,1,410,1
6719,16,1,420,1
6816,16,2,440,1
6817,16,2,480,1
6818,16,1,480,0
6819,16,1,515,1
6820,16,1,529,1
6821,16,1,511,1
6822,16,2,525,1
6823,16,2,419,1
6824,16,2,517,1
6825,16,1,483,0
6826,16,1,503,1
6827,16,2,445,1
6828,16,1,390,1
6829,16,2,441,1
6830,16,1,451,1
6831,16,2,539,1
6832,16,2,393,1
6833,16,1,443,1
6834,16,1,500,1
6835,16,2,467,1
6836,16,1,387,1
6837,16,2,422,1
6838,16,2,400,1
6839,16,2,411,1
6840,16,1,365,1
6841,16,2,417,1
6842,16,1,379,1
6843,16,2,430,1
6844,16,1,431,1
6845,16,1,353,1
6846,16,1,445,1
6847,16,2,454,1
6944,16,2,434,1
6945,16,1,515,1
6946,16,2,457,1
6947,16,2,474,1
6948,16,1,442,1
6949,16,2,371,1
6950,16,1,463,1
6951,16,2,415,1
6952,16,2,377,1
6953,16,1,356,1
6954,16,2,369,1
6955,16,1,381,1
6956,16,2,416,1
6957,16,2,410,1
6958,16,1,468,1
6959,16,1,436,1
6960,16,2,470,1
6961,16,2,358,1
6962,16,1,362,1
6963,16,2,446,1
6964,16,2,487,1
6965,16,1,438,1
6966,16,2,432,1
6967,16,1,513,1
6968,16,1,375,1
6969,16,1,435,1
6970,16,1,340,1
6971,16,2,442,1
6972,16,1,355,1
6973,16,1,359,1
6974,16,2,507,1
6975,16,1,322,1
7072,16,1,478,1
7073,16,2,461,1
7074,16,1,381,1
7075,16,1,408,1
7076,16,2,395,0
7077,16,2,434,1
7078,16,1,372,1
7079,16,1,504,1
7080,16,1,494,1
7081,16,2,333,0
7082,16,2,431,1
7083,16,2,464,1
7084,16,1,544,1
7085,16,1,669,1
7086,16,2,477,1
7087,16,1,460,1
7088,16,2,484,1
7089,16,1,492,1
7090,16,1,435,1
7091,16,2,468,1
7092,16,2,492,1
7093,16,2,428,1
7094,16,2,373,1
7095,16,2,401,1
7096,16,2,444,1
7097,16,1,476,1
7098,16,2,500,1
7099,16,1,458,1
7100,16,1,387,1
7101,16,1,398,1
7102,16,2,393,1
7103,16,1,332,1
7360,17,1,625,1
7361,17,1,379,1
7362,17,2,447,0
7363,17,2,812,1
7364,17,1,454,1
7365,17,2,431,1
7366,17,2,544,1
7367,17,2,893,1
7368,17,2,468,1
7369,17,1,484,1
7370,17,1,507,1
7371,17,2,890,1
7372,17,1,937,1
7373,17,2,511,1
7374,17,1,429,1
7375,17,1,1230,1
7376,17,1,624,1
7377,17,1,498,1
7378,17,2,424,1
7379,17,2,378,1
7380,17,2,542,1
7381,17,2,515,1
7382,17,1,441,1
7383,17,2,842,1
7384,17,1,356,1
7385,17,2,609,1
7386,17,1,515,1
7387,17,2,473,1
7388,17,1,472,1
7389,17,2,488,1
7390,17,1,352,1
7391,17,1,476,1
7488,17,1,467,1
7489,17,1,323,1
7490,17,1,473,1
7491,17,1,337,1
7492,17,1,422,1
7493,17,2,416,1
7494,17,1,386,1
7495,17,2,413,1
7496,17,2,439,1
7497,17,2,345,1
7498,17,2,445,1
7499,17,1,542,1
7500,17,1,531,1
7501,17,2,425,1
7502,17,2,411,1
7503,17,1,413,1
7504,17,1,447,1
7505,17,1,495,0
7506,17,2,419,0
7507,17,2,521,1
7508,17,2,463,1
7509,17,1,447,1
7510,17,2,624,1
7511,17,1,442,1
7512,17,1,387,1
7513,17,2,567,1
7514,17,1,483,1
7515,17,2,450,1
7516,17,1,443,1
7517,17,2,539,1
7518,17,2,409,1
7519,17,2,507,1
7616,17,1,490,1
7617,17,1,393,1
7618,17,1,444,1
7619,17,2,453,1
7620,17,1,493,1
7621,17,2,476,1
7622,17,2,996,1
7623,17,2,599,1
7624,17,2,378,1
7625,17,2,397,1
7626,17,2,392,1
7627,17,2,411,1
7628,17,1,509,1
7629,17,2,692,1
7630,17,2,435,1
7631,17,1,820,1
7632,17,2,478,1
7633,17,2,454,1
7634,17,1,478,1
7635,17,1,406,1
7636,17,2,424,1
7637,17,1,434,1
7638,17,1,500,1
7639,17,1,418,1
7640,17,1,372,1
7641,17,1,328,1
7642,17,1,366,1
7643,17,1,305,1
7644,17,2,423,1
7645,17,2,537,1
7646,17,2,415,1
7647,17,1,1121,1
7744,17,1,627,1
7745,17,1,532,1
7746,17,2,522,1
7747,17,2,520,1
7748,17,1,454,1
7749,17,2,446,1
7750,17,1,479,1
7751,17,2,382,1
7752,17,1,402,1
7753,17,2,404,1
7754,17,2,319,1
7755,17,2,365,1
7756,17,1,425,1
7757,17,1,659,1
7758,17,2,1244,1
7759,17,1,437,1
7760,17,1,374,1
7761,17,1,466,1
7762,17,1,402,1
7763,17,1,421,1
7764,17,2,999,1
7765,17,1,481,1
7766,17,2,537,1
7767,17,2,942,1
7768,17,2,428,1
7769,17,2,589,1
7770,17,1,472,1
7771,17,1,376,1
7772,17,2,428,1
7773,17,2,613,0
7774,17,2,380,1
7775,17,1,543,1
7872,17,2,1560,1
7873,17,2,348,1
7874,17,1,321,1
7875,17,1,695,1
7876,17,2,486,1
7877,17,1,445,1
7878,17,2,454,1
7879,17,1,422,1
7880,17,1,384,1
7881,17,1,940,1
7882,17,2,433,1
7883,17,1,411,1
7884,17,2,461,1
7885,17,2,533,1
7886,17,1,426,1
7887,17,1,388,1
7888,17,1,407,1
7889,17,1,554,1
7890,17,2,455,1
7891,17,1,367,1
7892,17,2,379,1
7893,17,1,415,1
7894,17,1,513,1
7895,17,2,471,1
7896,17,2,607,1
7897,17,2,425,1
7898,17,2,995,1
7899,17,2,438,1
7900,17,1,536,1
7901,17,2,517,1
7902,17,2,827,1
7903,17,1,596,1
8000,17,2,487,1
8001,17,2,438,1
8002,17,1,462,1
8003,17,1,406,1
8004,17,1,697,1
8005,17,2,632,1
8006,17,1,409,1
8007,17,1,963,1
8008,17,1,479,1
8009,17,2,519,1
8010,17,2,405,1
8011,17,1,551,1
8012,17,2,500,1
8013,17,2,435,1
8014,17,2,452,1
8015,17,2,549,1
8016,17,2,529,1
8017,17,2,543,1
8018,17,1,396,1
8019,17,1,366,1
8020,17,2,338,0
8021,17,2,396,1
8022,17,2,455,1
8023,17,1,495,1
8024,17,2,510,1
8025,17,1,452,1
8026,17,1,413,1
8027,17,1,479,1
8028,17,1,558,1
8029,17,1,755,1
8030,17,2,408,1
8031,17,1,714,1
8192,18,2,584,1
8193,18,1,427,1
8194,18,2,445,1
8195,18,2,381,1
8196,18,1,345,1
8197,18,1,493,1
8198,18,1,508,1
8199,18,2,531,1
8200,18,1,376,1
8201,18,1,372,1
8202,18,2,392,1
8203,18,2,403,1
8204,18,2,414,1
8205,18,1,544,1
8206,18,1,381,1
8207,18,2,408,1
8208,18,2,387,1
8209,18,1,334,1
8210,18,2,363,1
8211,18,1,494,1
8212,18,1,389,1
8213,18,2,560,1
8214,18,1,404,1
8215,18,2,407,0
8216,18,1,502,1
8217,18,2,589,1
8218,18,2,504,1
8219,18,1,471,1
8220,18,1,423,1
8221,18,2,473,1
8222,18,1,465,1
8223,18,2,473,1
8320,18,2,365,1
8321,18,1,449,1
8322,18,2,426,1
8323,18,2,443,1
8324,18,1,340,1
8325,18,2,313,1
8326,18,1,391,1
8327,18,1,402,1
8328,18,2,309,0
8329,18,2,448,1
8330,18,2,400,1
8331,18,2,403,1
8332,18,1,390,1
8333,18,1,369,1
8334,18,1,397,1
8335,18,1,343,1
8336,18,2,388,1
8337,18,1,423,1
8338,18,1,457,1
8339,18,1,346,1
8340,18,1,399,1
8341,18,2,561,1
8342,18,1,493,1
8343,18,2,420,1
8344,18,2,398,1
8345,18,2,361,1
8346,18,1,309,1
8347,18,1,339,1
8348,18,1,345,1
8349,18,2,477,1
8350,18,2,381,1
8351,18,2,400,1
8448,18,2,472,1
8449,18,2,416,1
8450,18,2,354,1
8451,18,1,431,1
8452,18,1,368,1
8453,18,2,380,1
8454,18,2,407,1
8455,18,2,450,1
8456,18,2,451,1
8457,18,1,475,1
8458,18,1,403,1
8459,18,1,374,1
8460,18,2,322,1
8461,18,1,440,1
8462,18,2,353,1
8463,18,1,334,1
8464,18,2,323,1
8465,18,1,401,1
8466,18,1,340,1
8467,18,2,425,1
8468,18,1,459,1
8469,18,2,452,1
8470,18,1,428,1
8471,18,1,342,1
8472,18,2,427,1
8473,18,2,372,1
8474,18,1,328,1
8475,18,1,326,1
8476,18,1,460,1
8477,18,1,332,1
8478,18,2,393,1
8479,18,2,412,1
8576,18,1,404,1
8577,18,1,334,1
8578,18,2,404,1
8579,18,2,326,1
8580,18,1,412,1
8581,18,1,342,1
8582,18,2,355,1
8583,18,2,360,1
8584,18,2,404,1
8585,18,2,382,0
8586,18,2,406,1
8587,18,1,425,1
8588,18,2,483,1
8589,18,1,546,1
8590,18,2,375,1
8591,18,1,435,1
8592,18,2,460,1
8593,18,2,372,1
8594,18,1,432,1
8595,18,2,441,1
8596,18,2,403,1
8597,18,1,381,1
8598,18,1,425,1
8599,18,1,403,1
8600,18,2,381,1
8601,18,1,393,1
8602,18,1,340,1
8603,18,1,377,1
8604,18,2,405,1
8605,18,1,383,1
8606,18,2,443,1
8607,18,1,404,1
8704,18,2,414,1
8705,18,1,336,1
8706,18,2,382,1
8707,18,2,689,1
8708,18,2,312,1
8709,18,1,358,0
8710,18,1,488,1
8711,18,1,455,1
8712,18,1,440,1
8713,18,2,505,1
8714,18,1,448,1
8715,18,2,360,1
8716,18,2,412,1
8717,18,1,454,1
8718,18,1,471,1
8719,18,1,502,1
8720,18,1,397,1
8721,18,2,431,1
8722,18,1,409,1
8723,18,2,427,1
8724,18,2,509,1
8725,18,2,419,1
8726,18,1,357,1
8727,18,2,466,1
8728,18,2,394,1
8729,18,1,557,1
8730,18,2,393,1
8731,18,1,348,1
8732,18,2,457,1
8733,18,2,385,1
8734,18,1,381,1
8735,18,1,360,1
8832,18,2,443,1
8833,18,1,371,1
8834,18,1,399,1
8835,18,2,490,1
8836,18,1,465,1
8837,18,1,313,1
8838,18,1,359,1
8839,18,1,491,1
8840,18,2,395,1
8841,18,1,445,1
8842,18,1,406,1
8843,18,2,441,1
8844,18,1,418,1
8845,18,2,372,1
8846,18,1,368,1
8847,18,1,444,1
8848,18,2,389,1
8849,18,2,536,1
8850,18,1,405,1
8851,18,1,416,1
8852,18,2,466,1
8853,18,1,394,1
8854,18,1,413,1
8855,18,2,455,1
8856,18,2,447,1
8857,18,2,360,1
8858,18,2,388,1
8859,18,2,463,1
8860,18,2,415,1
8861,18,2,385,1
8862,18,2,389,1
8863,18,1,456,1
9184,19,2,486,1
9185,19,2,445,1
9186,19,1,446,1
9187,19,1,382,1
9188,19,2,418,1
9189,19,2,452,1
9190,19,1,404,1
9191,19,1,335,1
9192,19,1,340,1
9193,19,1,433,1
9194,19,1,435,1
9195,19,2,340,0
9196,19,2,446,1
9197,19,2,367,1
9198,19,1,427,1
9199,19,2,499,1
9200,19,1,386,1
9201,19,1,445,1
9202,19,2,454,1
9203,19,1,446,1
9204,19,2,487,1
9205,19,2,446,1
9206,19,1,439,1
9207,19,2,624,1
9208,19,1,466,1
9209,19,1,474,1
9210,19,2,426,1
9211,19,1,428,1
9212,19,2,413,1
9213,19,2,431,1
9214,19,2,456,1
9215,19,1,497,1
9312,19,2,577,1
9313,19,2,452,1
9314,19,2,493,1
9315,19,1,484,1
9316,19,1,499,1
9317,19,1,466,1
9318,19,1,578,1
9319,19,2,437,1
9320,19,1,527,1
9321,19,1,404,1
9322,19,2,447,1
9323,19,2,455,1
9324,19,1,440,1
9325,19,1,441,1
9326,19,1,483,1
9327,19,2,410,1
9328,19,1,436,1
9329,19,1,501,1
9330,19,2,436,1
9331,19,2,485,1
9332,19,2,509,1
9333,19,2,507,0
9334,19,1,495,1
9335,19,2,493,1
9336,19,2,524,1
9337,19,1,490,1
9338,19,2,553,1
9339,19,1,374,1
9340,19,1,522,1
9341,19,1,568,1
9342,19,2,460,1
9343,19,2,452,1
9440,19,2,452,1
9441,19,2,484,1
9442,19,2,428,1
9443,19,1,413,1
9444,19,1,455,1
9445,19,2,464,1
9446,19,2,464,1
9447,19,1,504,1
9448,19,2,511,1
9449,19,2,437,1
9450,19,2,462,1
9451,19,2,430,1
9452,19,1,527,0
9453,19,2,497,1
9454,19,1,392,1
9455,19,2,387,1
9456,19,1,494,1
9457,19,2,389,1
9458,19,2,560,1
9459,19,1,413,1
9460,19,1,350,1
9461,19,1,411,1
9462,19,2,405,1
9463,19,1,432,1
9464,19,2,553,1
9465,19,2,454,1
9466,19,1,487,1
9467,19,1,478,1
9468,19,1,509,1
9469,19,1,396,1
9470,19,1,407,1
9471,19,1,385,1
9568,19,2,425,1
9569,19,1,427,1
9570,19,1,508,1
9571,19,2,387,1
9572,19,1,510,1
9573,19,1,468,1
9574,19,1,428,1
9575,19,2,469,1
9576,19,2,437,1
9577,19,1,399,1
9578,19,2,377,1
9579,19,2,477,1
9580,19,1,484,1
9581,19,2,419,1
9582,19,2,365,1
9583,19,2,425,1
9584,19,1,435,1
9585,19,1,373,1
9586,19,1,393,1
9587,19,2,452,1
9588,19,1,509,1
9589,19,2,451,1
9590,19,1,444,1
9591,19,1,373,1
9592,19,2,472,1
9593,19,2,664,1
9594,19,2,488,1
9595,19,1,455,1
9596,19,2,424,1
9597,19,1,418,1
9598,19,1,436,1
9599,19,2,381,1
9696,19,1,432,1
9697,19,1,385,1
9698,19,1,340,1
9699,19,1,434,1
9700,19,1,499,1
9701,19,2,410,0
9702,19,2,409,1
9703,19,1,419,1
9704,19,2,516,1
9705,19,1,419,1
9706,19,2,493,1
9707,19,2,443,1
9708,19,1,412,1
9709,19,2,438,1
9710,19,2,399,1
9711,19,2,458,1
9712,19,1,723,1
9713,19,1,425,1
9714,19,2,387,1
9715,19,1,422,1
9716,19,1,392,1
9717,19,2,371,1
9718,19,2,399,1
9719,19,2,378,1
9720,19,2,405,1
9721,19,1,416,1
9722,19,2,402,1
9723,19,1,389,1
9724,19,1,488,1
9725,19,2,375,1
9726,19,1,403,1
9727,19,2,430,1
9824,19,2,454,1
9825,19,2,382,1
9826,19,2,466,1
9827,19,1,386,1
9828,19,1,469,1
9829,19,2,533,1
9830,19,1,442,1
9831,19,1,443,1
9832,19,2,708,1
9833,19,2,635,1
9834,19,2,540,1
9835,19,2,513,1
9836,19,2,527,1
9837,19,1,533,1
9838,19,1,434,1
9839,19,2,515,1
9840,19,1,473,1
9841,19,1,529,1
9842,19,2,487,1
9843,19,2,558,1
9844,19,2,467,1
9845,19,2,563,1
9846,19,1,455,1
9847,19,1,536,1
9848,19,2,541,1
9849,19,1,498,1
9850,19,1,569,1
9851,19,2,517,1
9852,19,1,467,1
9853,19,1,507,1
9854,19,1,490,1
9855,19,1,489,1
9984,2,2,423,1
9985,2,2,345,1
9986,2,1,389,1
9987,2,2,353,1
9988,2,2,453,1
9989,2,2,350,1
9990,2,1,331,1
9991,2,1,296,1
9992,2,2,263,0
9993,2,1,483,1
9994,2,2,450,1
9995,2,2,491,1
9996,2,2,498,1
9997,2,1,441,1
9998,2,1,426,1
9999,2,1,476,1
10000,2,1,476,1
10001,2,1,356,1
10002,2,1,545,1
10003,2,2,389,1
10004,2,1,473,1
10005,2,1,416,1
10006,2,2,506,1
10007,2,2,344,1
10008,2,1,349,1
10009,2,2,354,1
10010,2,1,502,1
10011,2,2,461,1
10012,2,1,373,1
10013,2,2,473,1
10014,2,1,385,1
10015,2,2,388,1
10112,2,2,483,1
10113,2,1,410,1
10114,2,1,443,1
10115,2,1,380,1
10116,2,2,383,1
10117,2,2,450,1
10118,2,1,403,1
10119,2,2,342,1
10120,2,1,371,1
10121,2,1,439,1
10122,2,2,384,1
10123,2,2,380,1
10124,2,1,447,1
10125,2,2,392,1
10126,2,2,459,1
10127,2,1,396,1
10128,2,1,414,1
10129,2,2,520,1
10130,2,1,422,1
10131,2,2,416,1
10132,2,2,418,1
10133,2,1,476,1
10134,2,1,420,1
10135,2,1,390,1
10136,2,1,393,1
10137,2,1,372,1
10138,2,2,344,1
10139,2,2,508,1
10140,2,1,451,1
10141,2,2,404,1
10142,2,2,382,1
10143,2,2,386,1
10240,2,2,483,1
10241,2,2,395,1
10242,2,1,541,1
10243,2,1,443,1
10244,2,2,451,1
10245,2,2,444,1
10246,2,2,493,1
10247,2,2,435,1
10248,2,1,469,1
10249,2,2,421,1
10250,2,1,359,1
10251,2,1,451,1
10252,2,2,428,1
10253,2,1,438,1
10254,2,2,431,1
10255,2,2,464,1
10256,2,1,400,1
10257,2,2,419,1
10258,2,1,533,1
10259,2,1,418,1
10260,2,2,388,1
10261,2,1,384,1
10262,2,1,427,1
10263,2,2,436,1
10264,2,2,414,1
10265,2,2,392,1
10266,2,1,419,1
10267,2,1,421,1
10268,2,1,471,1
10269,2,1,431,1
10270,2,2,488,1
10271,2,1,424,0
10368,2,1,432,1
10369,2,2,362,1
10370,2,2,454,1
10371,2,2,318,1
10372,2,1,348,1
10373,2,1,377,1
10374,2,2,388,0
10375,2,1,396,1
10376,2,2,311,0
10377,2,1,401,1
10378,2,2,428,1
10379,2,1,437,1
10380,2,1,423,1
10381,2,1,425,1
10382,2,2,443,1
10383,2,1,388,0
10384,2,1,444,1
10385,2,2,476,1
10386,2,1,420,1
10387,2,2,486,1
10388,2,2,477,1
10389,2,2,428,1
10390,2,1,510,1
10391,2,2,476,1
10392,2,2,436,1
10393,2,2,493,1
10394,2,2,492,1
10395,2,1,467,1
10396,2,1,459,1
10397,2,1,427,1
10398,2,1,460,1
10399,2,2,508,1
10496,2,1,417,1
10497,2,2,395,1
10498,2,1,477,1
10499,2,1,460,1
10500,2,2,444,1
10501,2,1,372,1
10502,2,1,328,1
10503,2,2,502,1
10504,2,2,388,1
10505,2,1,440,1
10506,2,1,433,1
10507,2,2,418,1
10508,2,2,412,1
10509,2,1,398,1
10510,2,2,417,1
10511,2,1,371,1
10512,2,1,327,1
10513,2,1,356,1
10514,2,2,321,1
10515,2,2,407,1
10516,2,2,386,1
10517,2,2,293,1
10518,2,2,460,1
10519,2,1,356,1
10520,2,2,408,1
10521,2,1,355,1
10522,2,1,360,1
10523,2,2,420,1
10524,2,2,374,1
10525,2,1,442,1
10526,2,1,387,1
10527,2,2,494,1
10624,2,1,427,1
10625,2,2,437,1
10626,2,2,430,1
10627,2,1,375,1
10628,2,1,451,1
10629,2,1,420,1
10630,2,1,606,1
10631,2,2,417,0
10632,2,2,471,1
10633,2,1,391,1
10634,2,2,411,1
10635,2,2,477,1
10636,2,2,372,1
10637,2,1,456,1
10638,2,1,393,1
10639,2,2,395,1
10640,2,2,374,1
10641,2,2,410,1
10642,2,2,468,1
10643,2,1,444,1
10644,2,2,389,1
10645,2,2,416,1
10646,2,1,378,1
10647,2,1,389,1
10648,2,2,473,1
10649,2,1,409,1
10650,2,2,483,1
10651,2,1,459,1
10652,2,2,427,1
10653,2,1,341,1
10654,2,1,378,1
10655,2,1,373,1
10912,20,1,474,1
10913,20,2,442,1
10914,20,2,587,1
10915,20,2,543,1
10916,20,2,539,1
10917,20,1,417,1
10918,20,2,467,1
10919,20,2,435,1
10920,20,1,548,1
10921,20,2,481,1
10922,20,1,400,1
10923,20,2,451,1
10924,20,2,491,1
10925,20,2,523,1
10926,20,1,369,1
10927,20,1,437,1
10928,20,1,398,1
10929,20,2,449,1
10930,20,1,529,1
10931,20,1,407,1
10932,20,1,425,1
10933,20,1,451,1
10934,20,2,412,1
10935,20,2,470,1
10936,20,1,430,1
10937,20,1,495,1
10938,20,2,454,1
10939,20,1,471,1
10940,20,1,407,1
10941,20,2,521,1
10942,20,1,416,1
10943,20,2,474,1
11040,20,2,682,1
11041,20,1,353,1
11042,20,1,342,1
11043,20,2,451,1
11044,20,2,460,1
11045,20,2,460,1
11046,20,2,468,1
11047,20,1,380,1
11048,20,1,439,1
11049,20,1,400,1
11050,20,2,435,1
11051,20,1,396,1
11052,20,1,383,1
11053,20,1,354,1
11054,20,1,367,1
11055,20,2,411,1
11056,20,2,357,0
11057,20,1,382,1
11058,20,1,577,1
11059,20,1,445,1
11060,20,2,526,1
11061,20,2,412,1
11062,20,1,494,1
11063,20,2,604,1
11064,20,2,455,1
11065,20,1,456,1
11066,20,2,440,1
11067,20,2,442,1
11068,20,1,427,1
11069,20,2,452,1
11070,20,1,493,1
11071,20,2,428,1
11168,20,1,442,1
11169,20,1,339,1
11170,20,2,425,1
11171,20,2,379,1
11172,20,1,422,1
11173,20,2,352,1
11174,20,2,340,1
11175,20,2,442,1
11176,20,1,451,1
11177,20,1,404,1
11178,20,2,430,1
11179,20,2,360,1
11180,20,2,348,1
11181,20,1,472,1
11182,20,1,360,1
11183,20,1,396,1
11184,20,2,479,1
11185,20,1,398,1
11186,20,1,337,1
11187,20,2,453,1
11188,20,1,350,0
11189,20,2,495,1
11190,20,2,366,1
11191,20,1,370,1
11192,20,2,382,1
11193,20,1,377,1
11194,20,1,388,1
11195,20,1,544,1
11196,20,2,540,1
11197,20,2,442,1
11198,20,2,435,1
11199,20,1,333,1
11296,20,2,487,1
11297,20,2,423,1
11298,20,2,433,1
11299,20,2,394,1
11300,20,1,445,1
11301,20,1,445,1
11302,20,2,374,1
11303,20,2,394,1
11304,20,1,405,1
11305,20,1,351,1
11306,20,2,436,1
11307,20,1,389,1
11308,20,1,321,1
11309,20,1,359,1
11310,20,2,395,1
11311,20,2,438,1
11312,20,1,359,1
11313,20,1,412,1
11314,20,1,302,1
11315,20,2,396,1
11316,20,2,375,1
11317,20,2,475,1
11318,20,1,483,1
11319,20,1,354,1
11320,20,2,439,1
11321,20,1,432,1
11322,20,1,338,1
11323,20,2,503,1
11324,20,1,414,1
11325,20,2,480,1
11326,20,1,471,1
11327,20,2,407,1
11424,20,1,567,1
11425,20,1,315,1
11426,20,1,369,1
11427,20,2,349,0
11428,20,1,478,1
11429,20,1,357,1
11430,20,1,386,1
11431,20,1,461,1
11432,20,2,469,1
11433,20,2,445,1
11434,20,2,382,1
11435,20,2,489,1
11436,20,2,433,1
11437,20,2,346,1
11438,20,2,343,1
11439,20,1,380,1
11440,20,1,343,1
11441,20,1,348,1
11442,20,2,361,1
11443,20,1,365,1
11444,20,2,473,1
11445,20,1,433,1
11446,20,1,466,1
11447,20,1,346,1
11448,20,1,367,1
11449,20,2,459,1
11450,20,2,395,1
11451,20,2,454,1
11452,20,2,383,1
11453,20,2,474,1
11454,20,1,330,1
11455,20,2,495,1
11552,20,2,493,1
11553,20,2,492,1
11554,20,1,395,1
11555,20,1,326,1
11556,20,1,500,1
11557,20,1,347,1
11558,20,2,447,1
11559,20,2,432,1
11560,20,1,345,1
11561,20,1,350,1
11562,20,1,459,1
11563,20,1,363,1
11564,20,2,455,1
11565,20,1,392,1
11566,20,2,475,1
11567,20,2,419,1
11568,20,2,429,1
11569,20,1,366,1
11570,20,2,442,1
11571,20,1,444,1
11572,20,2,412,1
11573,20,1,382,1
11574,20,2,370,1
11575,20,2,445,1
11576,20,1,461,1
11577,20,2,469,1
11578,20,2,445,1
11579,20,1,374,1
11580,20,2,386,1
11581,20,2,333,1
11582,20,1,371,1
11583,20,1,447,1
11840,21,1,591,1
11841,21,1,402,1
11842,21,2,461,1
11843,21,2,501,1
11844,21,1,652,0
11845,21,1,601,1
11846,21,2,452,1
11847,21,2,564,1
11848,21,1,616,1
11849,21,1,506,1
11850,21,2,553,1
11851,21,1,526,1
11852,21,1,652,1
11853,21,2,548,1
11854,21,1,665,1
11855,21,2,545,1
11856,21,2,502,1
11857,21,2,549,1
11858,21,1,561,0
11859,21,2,626,1
11860,21,2,603,1
11861,21,1,510,1
11862,21,2,628,1
11863,21,2,445,1
11864,21,2,390,1
11865,21,2,489,1
11866,21,1,441,1
11867,21,1,442,1
11868,21,1,611,1
11869,21,1,390,1
11870,21,1,441,1
11871,21,2,498,1
11968,21,1,562,1
11969,21,2,470,1
11970,21,1,390,1
11971,21,2,417,1
11972,21,1,443,1
11973,21,1,380,1
11974,21,2,512,1
11975,21,1,414,1
11976,21,2,448,1
11977,21,2,368,1
11978,21,2,436,1
11979,21,1,430,1
11980,21,2,415,1
11981,21,2,392,1
11982,21,1,435,1
11983,21,1,589,1
11984,21,2,440,1
11985,21,2,417,1
11986,21,2,411,1
11987,21,2,437,1
11988,21,1,383,1
11989,21,2,402,1
11990,21,1,589,1
11991,21,1,464,1
11992,21,1,352,1
11993,21,1,357,1
11994,21,1,425,1
11995,21,2,539,1
11996,21,1,465,1
11997,21,2,489,1
11998,21,1,448,1
11999,21,2,449,1
12096,21,1,408,1
12097,21,1,379,1
12098,21,2,494,1
12099,21,2,501,1
12100,21,1,1356,1
12101,21,2,497,1
12102,21,2,439,1
12103,21,1,793,0
12104,21,2,601,1
12105,21,1,675,1
12106,21,2,499,1
12107,21,2,458,1
12108,21,2,451,1
12109,21,1,451,1
12110,21,1,444,1
12111,21,2,453,1
12112,21,1,437,1
12113,21,1,351,1
12114,21,1,475,1
12115,21,2,523,1
12116,21,2,513,1
12117,21,1,503,1
12118,21,1,478,1
12119,21,2,598,0
12120,21,2,717,1
12121,21,1,443,1
12122,21,2,388,1
12123,21,1,527,1
12124,21,2,485,1
12125,21,2,484,1
12126,21,1,556,1
12127,21,1,520,1
12224,21,1,532,1
12225,21,1,449,1
12226,21,1,450,1
12227,21,1,410,1
12228,21,1,396,1
12229,21,2,406,1
12230,21,2,401,1
12231,21,2,468,1
12232,21,1,452,1
12233,21,2,516,1
12234,21,1,442,1
12235,21,2,523,1
12236,21,2,513,1
12237,21,1,503,1
12238,21,1,494,1
12239,21,2,468,1
12240,21,2,372,1
12241,21,2,392,1
12242,21,2,395,1
12243,21,1,502,1
12244,21,1,556,1
12245,21,1,417,1
12246,21,2,571,1
12247,21,1,559,1
12248,21,2,499,1
12249,21,1,522,1
12250,21,1,912,1
12251,21,2,518,1
12252,21,2,468,1
12253,21,2,540,1
12254,21,2,410,1
12255,21,1,460,1
12352,21,1,535,1
12353,21,1,412,1
12354,21,2,622,1
12355,21,1,432,1
12356,21,2,450,1
12357,21,2,370,1
12358,21,1,462,1
12359,21,1,454,1
12360,21,2,391,1
12361,21,1,402,1
12362,21,2,397,1
12363,21,1,392,1
12364,21,2,371,1
12365,21,1,447,1
12366,21,2,536,1
12367,21,1,453,1
12368,21,2,430,1
12369,21,2,399,1
12370,21,1,490,1
12371,21,1,369,1
12372,21,2,453,1
12373,21,2,446,1
12374,21,2,390,1
12375,21,1,450,1
12376,21,2,458,1
12377,21,1,371,1
12378,21,1,375,1
12379,21,2,483,1
12380,21,2,434,1
12381,21,1,444,1
12382,21,2,468,1
12383,21,1,636,1
12480,21,2,686,1
12481,21,2,413,1
12482,21,1,567,1
12483,21,2,603,1
12484,21,1,414,1
12485,21,1,480,1
12486,21,2,527,1
12487,21,2,509,1
12488,21,2,460,1
12489,21,2,412,1
12490,21,2,374,1
12491,21,1,593,1
12492,21,1,428,1
12493,21,2,646,1
12494,21,2,494,1
12495,21,1,541,1
12496,21,1,434,1
12497,21,1,316,1
12498,21,1,338,1
12499,21,1,375,1
12500,21,2,475,1
12501,21,1,523,1
12502,21,1,537,1
12503,21,1,350,1
12504,21,2,523,1
12505,21,2,337,1
12506,21,1,398,1
12507,21,1,353,1
12508,21,2,446,1
12509,21,2,454,1
12510,21,2,415,1
12511,21,1,465,1
12672,22,2,615,1
12673,22,1,658,1
12674,22,1,498,1
12675,22,2,545,1
12676,22,1,686,1
12677,22,1,573,1
12678,22,2,537,1
12679,22,1,510,1
12680,22,2,652,1
12681,22,2,748,1
12682,22,2,425,1
12683,22,1,571,1
12684,22,1,519,1
12685,22,1,533,1
12686,22,1,579,1
12687,22,2,654,1
12688,22,2,455,1
12689,22,2,471,1
12690,22,2,423,1
12691,22,1,385,1
12692,22,1,517,1
12693,22,2,555,1
12694,22,2,511,1
12695,22,2,509,1
12696,22,1,651,1
12697,22,1,516,1
12698,22,2,538,1
12699,22,1,456,1
12700,22,2,432,1
12701,22,2,418,1
12702,22,1,508,1
12703,22,1,386,1
12800,22,2,573,1
12801,22,1,417,1
12802,22,1,411,1
12803,22,2,453,1
12804,22,2,446,1
12805,22,1,614,1
12806,22,2,520,1
12807,22,2,494,1
12808,22,1,389,1
12809,22,1,336,1
12810,22,1,302,1
12811,22,2,620,1
12812,22,2,534,1
12813,22,2,276,0
12814,22,1,584,1
12815,22,1,460,1
12816,22,2,492,1
12817,22,2,555,1
12818,22,2,456,1
12819,22,1,520,1
12820,22,1,726,1
12821,22,2,572,1
12822,22,2,696,1
12823,22,1,599,1
12824,22,1,409,1
12825,22,1,452,1
12826,22,1,933,1
12827,22,2,498,1
12828,22,2,465,1
12829,22,1,441,1
12830,22,1,674,1
12831,22,2,682,1
12928,22,1,430,1
12929,22,1,535,1
12930,22,2,445,1
12931,22,1,533,1
12932,22,2,435,1
12933,22,2,500,1
12934,22,2,395,1
12935,22,2,469,1
12936,22,2,533,1
12937,22,2,451,1
12938,22,1,563,1
12939,22,2,407,1
12940,22,2,474,1
12941,22,2,418,1
12942,22,1,396,1
12943,22,2,399,1
12944,22,1,409,1
12945,22,1,468,1
12946,22,2,476,1
12947,22,1,420,1
12948,22,1,382,1
12949,22,1,529,1
12950,22,1,399,1
12951,22,1,744,1
12952,22,2,421,1
12953,22,1,399,1
12954,22,2,450,1
12955,22,2,363,1
12956,22,2,423,1
12957,22,1,545,1
12958,22,1,437,1
12959,22,1,335,1
13056,22,1,465,1
13057,22,1,425,1
13058,22,2,443,1
13059,22,2,468,1
13060,22,1,388,1
13061,22,2,512,1
13062,22,1,453,1
13063,22,2,541,1
13064,22,1,459,1
13065,22,2,499,1
13066,22,1,506,1
13067,22,1,473,1
13068,22,1,617,1
13069,22,2,427,1
13070,22,1,628,1
13071,22,1,429,1
13072,22,2,495,1
13073,22,2,398,1
13074,22,2,520,1
13075,22,1,518,1
13076,22,2,468,1
13077,22,1,468,1
13078,22,1,540,1
13079,22,1,514,1
13080,22,2,424,1
13081,22,2,362,1
13082,22,1,422,1
13083,22,1,536,1
13084,22,2,437,1
13085,22,2,494,1
13086,22,2,429,1
13087,22,2,510,1
13184,22,1,605,1
13185,22,1,399,1
13186,22,1,554,1
13187,22,2,591,1
13188,22,2,898,1
13189,22,1,505,1
13190,22,1,536,1
13191,22,2,565,1
13192,22,2,705,1
13193,22,2,464,1
13194,22,2,592,1
13195,22,2,723,1
13196,22,1,609,1
13197,22,1,491,1
13198,22,1,419,1
13199,22,2,509,1
13200,22,2,716,1
13201,22,1,442,1
13202,22,1,539,1
13203,22,2,432,1
13204,22,1,498,1
13205,22,2,816,1
13206,22,1,482,1
13207,22,1,458,1
13208,22,2,514,1
13209,22,2,505,1
13210,22,1,447,1
13211,22,2,544,1
13212,22,2,493,1
13213,22,1,388,1
13214,22,2,479,1
13215,22,1,415,1
13312,22,2,458,1
13313,22,2,370,1
13314,22,2,478,1
13315,22,1,422,1
13316,22,1,496,1
13317,22,2,470,1
13318,22,2,390,1
13319,22,2,370,1
13320,22,1,486,1
13321,22,2,485,1
13322,22,2,420,1
13323,22,1,358,1
13324,22,2,363,1
13325,22,1,583,1
13326,22,1,450,1
13327,22,1,515,1
13328,22,2,481,1
13329,22,1,376,1
13330,22,1,364,1
13331,22,2,408,0
13332,22,2,591,1
13333,22,1,419,1
13334,22,2,541,1
13335,22,1,402,1
13336,22,2,397,1
13337,22,1,439,1
13338,22,1,376,1
13339,22,2,579,1
13340,22,1,431,1
13341,22,1,424,1
13342,22,1,394,1
13343,22,2,517,1
13664,23,1,690,0
13665,23,2,670,1
13666,23,1,750,1
13667,23,2,451,1
13668,23,1,547,1
13669,23,1,464,1
13670,23,1,504,1
13671,23,2,447,1
13672,23,1,391,1
13673,23,1,403,1
13674,23,1,469,1
13675,23,2,517,1
13676,23,2,491,1
13677,23,1,459,1
13678,23,2,435,1
13679,23,2,533,1
13680,23,1,434,1
13681,23,2,444,1
13682,23,1,444,1
13683,23,1,453,1
13684,23,2,470,1
13685,23,1,518,1
13686,23,2,524,1
13687,23,1,466,1
13688,23,2,466,1
13689,23,1,490,1
13690,23,2,481,1
13691,23,2,487,1
13692,23,1,479,1
13693,23,2,486,1
13694,23,2,461,1
13695,23,2,477,1
13792,23,1,1061,1
13793,23,2,517,1
13794,23,2,451,1
13795,23,2,404,1
13796,23,2,510,1
13797,23,2,613,1
13798,23,2,495,1
13799,23,1,445,1
13800,23,1,405,1
13801,23,2,480,1
13802,23,1,471,1
13803,23,2,439,1
13804,23,2,392,1
13805,23,2,411,1
13806,23,1,541,1
13807,23,2,426,1
13808,23,1,452,1
13809,23,1,420,1
13810,23,1,494,1
13811,23,1,461,1
13812,23,1,461,1
13813,23,2,493,1
13814,23,2,532,1
13815,23,1,473,1
13816,23,1,449,1
13817,23,1,522,1
13818,23,1,432,1
13819,23,2,545,1
13820,23,2,470,1
13821,23,1,534,0
13822,23,1,488,1
13823,23,2,399,1
13920,23,1,771,1
13921,23,1,432,1
13922,23,1,401,1
13923,23,2,419,1
13924,23,1,462,1
13925,23,1,422,1
13926,23,2,448,1
13927,23,1,344,1
13928,23,1,421,1
13929,23,2,439,1
13930,23,2,328,1
13931,23,2,437,1
13932,23,2,471,1
13933,23,2,367,1
13934,23,2,395,1
13935,23,1,477,1
13936,23,1,573,1
13937,23,2,961,1
13938,23,2,333,1
13939,23,2,346,1
13940,23,1,367,1
13941,23,2,443,1
13942,23,1,316,1
13943,23,1,322,0
13944,23,2,540,1
13945,23,2,441,1
13946,23,1,483,1
13947,23,1,530,1
13948,23,1,719,1
13949,23,2,566,1
13950,23,2,434,1
13951,23,1,459,1
14048,23,1,922,1
14049,23,1,480,1
14050,23,2,503,1
14051,23,1,446,1
14052,23,1,487,1
14053,23,2,406,1
14054,23,2,465,1
14055,23,2,409,1
14056,23,1,452,1
14057,23,2,532,1
14058,23,2,370,1
14059,23,2,398,1
14060,23,2,312,1
14061,23,1,486,1
14062,23,1,429,1
14063,23,1,599,1
14064,23,2,474,1
14065,23,2,362,1
14066,23,2,390,1
14067,23,1,369,1
14068,23,1,349,0
14069,23,2,438,1
14070,23,2,391,1
14071,23,1,411,1
14072,23,1,485,1
14073,23,1,436,1
14074,23,1,389,1
14075,23,1,465,1
14076,23,2,457,1
14077,23,1,441,1
14078,23,2,434,1
14079,23,2,403,1
14176,23,1,534,1
14177,23,2,443,1
14178,23,1,460,1
14179,23,2,388,1
14180,23,1,311,1
14181,23,1,389,0
14182,23,2,469,1
14183,23,2,381,1
14184,23,1,408,1
14185,23,2,418,1
14186,23,2,396,1
14187,23,2,383,1
14188,23,1,442,1
14189,23,1,547,1
14190,23,2,392,1
14191,23,1,539,1
14192,23,1,401,1
14193,23,2,459,1
14194,23,1,443,1
14195,23,1,356,1
14196,23,2,393,1
14197,23,1,331,1
14198,23,2,569,1
14199,23,2,405,1
14200,23,1,423,1
14201,23,1,401,1
14202,23,2,516,1
14203,23,2,410,1
14204,23,1,420,1
14205,23,1,390,1
14206,23,2,457,1
14207,23,2,490,1
14304,23,1,586,1
14305,23,1,477,1
14306,23,2,533,1
14307,23,2,786,1
14308,23,1,413,1
14309,23,2,431,1
14310,23,2,353,1
14311,23,2,413,1
14312,23,2,351,1
14313,23,1,372,1
14314,23,2,312,1
14315,23,1,350,1
14316,23,1,459,1
14317,23,2,435,1
14318,23,2,453,1
14319,23,1,381,1
14320,23,2,409,1
14321,23,1,379,1
14322,23,1,327,1
14323,23,1,356,1
14324,23,2,352,0
14325,23,1,538,1
14326,23,1,479,1
14327,23,2,446,1
14328,23,1,423,1
14329,23,2,433,1
14330,23,1,530,1
14331,23,2,376,1
14332,23,1,412,1
14333,23,2,470,1
14334,23,2,414,1
14335,23,1,360,1
14496,24,2,347,1
14497,24,2,488,1
14498,24,1,487,1
14499,24,2,454,1
14500,24,1,367,1
14501,24,1,379,1
14502,24,2,486,0
14503,24,2,474,1
14504,24,1,546,1
14505,24,1,471,1
14506,24,2,367,1
14507,24,2,331,1
14508,24,1,448,1
14509,24,1,793,1
14510,24,2,404,1
14511,24,2,422,1
14512,24,1,456,0
14513,24,1,381,1
14514,24,2,369,1
14515,24,1,653,1
14516,24,2,734,1
14517,24,1,819,1
14518,24,2,437,1
14519,24,2,358,1
14520,24,1,459,1
14521,24,2,452,1
14522,24,1,484,1
14523,24,1,412,1
14524,24,1,638,1
14525,24,2,479,1
14526,24,1,487,1
14527,24,2,558,1
14624,24,1,497,1
14625,24,2,512,1
14626,24,1,446,1
14627,24,2,406,1
14628,24,2,577,1
14629,24,2,444,1
14630,24,2,357,0
14631,24,2,350,1
14632,24,1,379,1
14633,24,2,550,1
14634,24,1,418,1
14635,24,1,532,1
14636,24,2,425,1
14637,24,1,635,1
14638,24,1,373,1
14639,24,1,384,1
14640,24,2,420,1
14641,24,2,446,1
14642,24,1,390,1
14643,24,1,370,1
14644,24,1,478,1
14645,24,1,397,0
14646,24,2,452,1
14647,24,2,397,1
14648,24,1,400,1
14649,24,2,458,1
14650,24,2,419,1
14651,24,1,469,1
14652,24,2,821,1
14653,24,2,407,1
14654,24,1,178,1
14655,24,1,413,1
14752,24,2,436,1
14753,24,1,357,1
14754,24,1,402,1
14755,24,1,412,1
14756,24,1,334,1
14757,24,2,308,0
14758,24,1,375,1
14759,24,1,307,1
14760,24,1,297,1
14761,24,1,400,1
14762,24,2,307,1
14763,24,2,353,0
14764,24,1,322,1
14765,24,2,232,0
14766,24,2,430,1
14767,24,2,447,1
14768,24,1,392,1
14769,24,2,459,1
14770,24,1,412,1
14771,24,1,406,1
14772,24,2,385,1
14773,24,2,388,1
14774,24,2,311,1
14775,24,1,437,0
14776,24,2,346,1
14777,24,1,391,1
14778,24,2,442,1
14779,24,2,419,1
14780,24,1,389,1
14781,24,1,385,1
14782,24,2,404,1
14783,24,2,399,1
14880,24,1,393,1
14881,24,1,332,1
14882,24,2,354,1
14883,24,1,254,1
14884,24,1,382,1
14885,24,1,353,1
14886,24,2,374,1
14887,24,2,346,1
14888,24,1,438,1
14889,24,1,352,1
14890,24,2,380,1
14891,24,2,384,1
14892,24,1,403,1
14893,24,1,430,1
14894,24,1,607,1
14895,24,2,314,1
14896,24,2,400,1
14897,24,1,306,1
14898,24,1,329,1
14899,24,1,326,1
14900,24,2,460,1
14901,24,1,396,1
14902,24,2,478,1
14903,24,2,366,1
14904,24,2,298,1
14905,24,1,400,1
14906,24,2,379,0
14907,24,2,355,1
14908,24,2,343,0
14909,24,1,393,1
14910,24,2,644,1
14911,24,2,389,0
15008,24,1,436,1
15009,24,2,325,1
15010,24,1,315,1
15011,24,2,409,0
15012,24,1,336,1
15013,24,1,382,1
15014,24,1,409,1
15015,24,1,452,1
15016,24,2,260,0
15017,24,2,585,1
15018,24,2,524,1
15019,24,1,346,1
15020,24,2,367,0
15021,24,1,551,1
15022,24,2,404,1
15023,24,1,319,1
15024,24,2,301,1
15025,24,2,331,1
15026,24,2,328,1
15027,24,1,462,1
15028,24,1,414,1
15029,24,2,344,1
15030,24,2,460,0
15031,24,1,377,1
15032,24,2,460,1
15033,24,1,556,1
15034,24,1,393,1
15035,24,2,460,1
15036,24,2,380,1
15037,24,1,423,0
15038,24,2,405,0
15039,24,1,389,1
15136,24,2,302,0
15137,24,1,377,1
15138,24,1,412,1
15139,24,2,510,1
15140,24,2,364,1
15141,24,2,344,1
15142,24,2,357,1
15143,24,1,506,1
15144,24,1,352,0
15145,24,1,289,0
15146,24,1,349,0
15147,24,2,438,1
15148,24,2,368,1
15149,24,2,556,1
15150,24,1,407,1
15151,24,2,482,0
15152,24,2,454,1
15153,24,2,415,1
15154,24,1,385,1
15155,24,1,436,1
15156,24,1,373,1
15157,24,2,433,1
15158,24,1,379,0
15159,24,2,354,0
15160,24,2,540,1
15161,24,1,425,1
15162,24,1,419,1
15163,24,1,389,1
15164,24,1,384,1
15165,24,1,724,1
15166,24,2,418,1
15167,24,2,348,1
15424,25,2,403,1
15425,25,1,341,1
15426,25,1,371,1
15427,25,1,327,1
15428,25,2,396,1
15429,25,2,374,1
15430,25,1,594,1
15431,25,2,357,1
15432,25,2,370,1
15433,25,2,350,1
15434,25,2,346,1
15435,25,1,359,1
15436,25,1,403,1
15437,25,1,470,1
15438,25,1,366,1
15439,25,1,346,1
15440,25,2,310,1
15441,25,2,468,1
15442,25,1,340,1
15443,25,2,322,1
15444,25,1,312,1
15445,25,1,342,1
15446,25,2,299,1
15447,25,2,305,1
15448,25,2,272,1
15449,25,2,336,1
15450,25,2,301,1
15451,25,2,380,1
15452,25,1,487,1
15453,25,1,351,1
15454,25,1,355,0
15455,25,1,580,1
15552,25,1,379,1
15553,25,2,422,1
15554,25,2,288,1
15555,25,2,295,1
15556,25,2,438,1
15557,25,2,383,1
15558,25,2,315,1
15559,25,2,441,1
15560,25,2,410,1
15561,25,2,444,1
15562,25,1,341,1
15563,25,2,354,1
15564,25,2,399,1
15565,25,1,321,1
15566,25,2,399,1
15567,25,1,426,1
15568,25,1,332,1
15569,25,2,409,1
15570,25,2,396,1
15571,25,1,391,1
15572,25,1,338,1
15573,25,1,287,1
15574,25,1,310,1
15575,25,2,316,1
15576,25,2,298,1
15577,25,1,289,1
15578,25,1,288,1
15579,25,1,336,1
15580,25,1,309,1
15581,25,1,404,1
15582,25,1,294,1
15583,25,1,245,1
15680,25,1,332,1
15681,25,1,305,1
15682,25,2,288,0
15683,25,1,436,1
15684,25,2,485,1
15685,25,2,348,1
15686,25,2,329,1
15687,25,2,334,1
15688,25,2,363,1
15689,25,1,319,1
15690,25,2,341,1
15691,25,1,395,1
15692,25,2,293,1
15693,25,1,484,1
15694,25,2,491,1
15695,25,2,363,1
15696,25,2,735,1
15697,25,1,396,1
15698,25,2,343,1
15699,25,2,356,1
15700,25,1,345,1
15701,25,1,381,1
15702,25,2,489,1
15703,25,1,424,1
15704,25,1,377,1
15705,25,1,364,1
15706,25,1,392,1
15707,25,1,387,1
15708,25,2,358,1
15709,25,1,339,1
15710,25,1,480,1
15711,25,2,408,1
15808,25,1,324,1
15809,25,1,322,1
15810,25,1,375,1
15811,25,2,355,1
15812,25,1,320,1
15813,25,2,414,1
15814,25,1,360,0
15815,25,2,513,1
15816,25,2,335,1
15817,25,2,428,1
15818,25,1,396,1
15819,25,2,407,1
15820,25,2,378,1
15821,25,1,373,0
15822,25,2,469,1
15823,25,1,421,1
15824,25,1,423,1
15825,25,2,409,1
15826,25,1,387,1
15827,25,1,375,1
15828,25,1,379,1
15829,25,2,390,1
15830,25,1,377,0
15831,25,1,337,1
15832,25,2,382,1
15833,25,1,466,1
15834,25,2,394,1
15835,25,2,340,1
15836,25,2,330,1
15837,25,2,367,1
15838,25,1,387,1
15839,25,2,302,1
15936,25,2,420,1
15937,25,1,398,1
15938,25,1,448,1
15939,25,1,393,1
15940,25,1,300,1
15941,25,2,354,1
15942,25,2,351,1
15943,25,2,380,1
15944,25,2,359,1
15945,25,2,332,1
15946,25,1,489,1
15947,25,2,432,1
15948,25,2,314,1
15949,25,1,351,1
15950,25,1,380,1
15951,25,1,335,1
15952,25,2,349,1
15953,25,2,393,1
15954,25,2,340,1
15955,25,1,345,1
15956,25,2,374,1
15957,25,2,426,1
15958,25,1,427,1
15959,25,2,301,1
15960,25,1,307,1
15961,25,1,322,1
15962,25,1,344,1
15963,25,2,284,0
15964,25,2,360,0
15965,25,1,449,1
15966,25,1,441,1
15967,25,1,323,1
16064,25,2,432,1
16065,25,2,401,1
16066,25,2,556,1
16067,25,1,377,1
16068,25,1,420,1
16069,25,1,430,1
16070,25,1,367,1
16071,25,2,419,1
16072,25,1,317,1
16073,25,2,331,1
16074,25,1,360,1
16075,25,1,316,1
16076,25,1,386,1
16077,25,2,366,1
16078,25,1,442,1
16079,25,2,419,1
16080,25,1,373,1
16081,25,1,369,1
16082,25,2,397,1
16083,25,2,392,1
16084,25,2,347,1
16085,25,1,360,1
16086,25,1,356,1
16087,25,1,312,1
16088,25,2,342,1
16089,25,2,299,1
16090,25,2,290,1
16091,25,2,321,1
16092,25,2,335,1
16093,25,1,365,0
16094,25,1,309,1
16095,25,2,316,1
16256,26,2,321,0
16257,26,1,307,1
16258,26,2,386,1
16259,26,1,309,1
16260,26,1,292,1
16261,26,1,299,1
16262,26,2,266,0
16263,26,2,446,1
16264,26,2,463,1
16265,26,2,375,1
16266,26,2,347,1
16267,26,1,416,1
16268,26,2,306,0
16269,26,2,469,1
16270,26,1,533,1
16271,26,1,306,1
16272,26,2,409,1
16273,26,1,371,1
16274,26,1,351,1
16275,26,1,348,1
16276,26,1,425,1
16277,26,1,371,1
16278,26,1,455,1
16279,26,1,335,1
16280,26,2,589,1
16281,26,2,480,1
16282,26,2,527,1
16283,26,1,485,1
16284,26,2,332,0
16285,26,1,422,1
16286,26,2,504,1
16287,26,2,382,1
16384,26,1,714,1
16385,26,2,336,0
16386,26,2,378,1
16387,26,1,397,1
16388,26,1,496,1
16389,26,2,382,0
16390,26,1,414,1
16391,26,2,336,0
16392,26,2,426,1
16393,26,1,492,1
16394,26,2,516,1
16395,26,1,458,1
16396,26,1,362,1
16397,26,2,326,0
16398,26,1,465,1
16399,26,2,457,1
16400,26,2,513,1
16401,26,2,463,1
16402,26,2,455,1
16403,26,2,408,1
16404,26,1,563,1
16405,26,1,399,1
16406,26,2,480,1
16407,26,2,496,1
16408,26,2,351,1
16409,26,1,427,1
16410,26,1,309,1
16411,26,1,419,1
16412,26,1,557,1
16413,26,2,482,0
16414,26,1,414,1
16415,26,1,536,1
16512,26,2,515,1
16513,26,2,369,1
16514,26,1,349,1
16515,26,1,362,1
16516,26,2,358,0
16517,26,1,703,1
16518,26,1,397,1
16519,26,2,536,1
16520,26,1,557,1
16521,26,1,386,1
16522,26,2,325,0
16523,26,1,424,1
16524,26,2,402,1
16525,26,2,437,1
16526,26,1,422,1
16527,26,2,448,1
16528,26,1,361,1
16529,26,1,324,1
16530,26,1,402,1
16531,26,1,348,1
16532,26,2,401,1
16533,26,1,444,1
16534,26,2,588,1
16535,26,2,376,1
16536,26,2,315,0
16537,26,1,405,1
16538,26,2,408,0
16539,26,1,431,1
16540,26,2,393,1
16541,26,1,411,1
16542,26,2,445,0
16543,26,2,394,1
16640,26,1,756,1
16641,26,1,376,1
16642,26,1,348,1
16643,26,1,320,1
16644,26,2,318,0
16645,26,1,545,1
16646,26,2,470,1
16647,26,2,510,1
16648,26,2,372,1
16649,26,2,344,1
16650,26,2,349,1
16651,26,2,417,1
16652,26,2,411,1
16653,26,2,373,1
16654,26,2,369,1
16655,26,1,517,1
16656,26,2,499,1
16657,26,2,457,1
16658,26,2,442,1
16659,26,1,499,1
16660,26,1,426,1
16661,26,1,387,1
16662,26,1,399,1
16663,26,1,393,1
16664,26,1,364,1
16665,26,2,512,1
16666,26,1,542,1
16667,26,2,411,1
16668,26,1,469,1
16669,26,2,421,1
16670,26,1,847,1
16671,26,1,360,1
16768,26,2,383,1
16769,26,1,330,0
16770,26,1,436,1
16771,26,2,309,0
16772,26,1,496,1
16773,26,1,327,1
16774,26,1,443,1
16775,26,2,412,1
16776,26,1,582,1
16777,26,1,369,1
16778,26,2,405,1
16779,26,1,368,1
16780,26,2,348,0
16781,26,1,397,1
16782,26,1,512,1
16783,26,2,486,1
16784,26,2,453,1
16785,26,2,446,1
16786,26,2,367,1
16787,26,2,443,1
16788,26,2,403,1
16789,26,2,430,1
16790,26,1,439,1
16791,26,2,617,0
16792,26,1,455,1
16793,26,1,408,1
16794,26,2,427,1
16795,26,1,380,1
16796,26,1,343,1
16797,26,2,444,1
16798,26,1,349,1
16799,26,2,345,0
16896,26,1,481,1
16897,26,1,400,1
16898,26,2,339,0
16899,26,2,469,1
16900,26,1,356,1
16901,26,2,416,1
16902,26,2,410,0
16903,26,2,433,1
16904,26,1,474,0
16905,26,1,375,1
16906,26,2,435,1
16907,26,1,388,1
16908,26,1,431,1
16909,26,1,409,1
16910,26,2,395,1
16911,26,1,374,1
16912,26,1,290,1
16913,26,2,505,1
16914,26,2,464,1
16915,26,2,416,1
16916,26,2,458,1
16917,26,2,379,1
16918,26,1,406,1
16919,26,2,305,0
16920,26,1,404,1
16921,26,1,358,1
16922,26,2,587,1
16923,26,2,422,1
16924,26,1,376,1
16925,26,1,436,1
16926,26,1,461,1
16927,26,2,573,1
17248,27,1,432,1
17249,27,1,353,1
17250,27,1,342,1
17251,27,1,315,1
17252,27,2,297,0
17253,27,1,444,1
17254,27,2,421,1
17255,27,1,367,1
17256,27,2,467,1
17257,27,1,411,1
17258,27,1,421,1
17259,27,2,407,1
17260,27,1,473,1
17261,27,1,345,1
17262,27,2,438,1
17263,27,2,447,1
17264,27,1,384,1
17265,27,1,379,1
17266,27,1,359,1
17267,27,2,355,0
17268,27,2,437,1
17269,27,2,422,1
17270,27,2,448,1
17271,27,2,441,1
17272,27,2,378,1
17273,27,2,389,1
17274,27,2,353,1
17275,27,1,301,1
17276,27,2,492,1
17277,27,2,387,1
17278,27,1,383,1
17279,27,1,338,1
17376,27,2,598,1
17377,27,1,465,1
17378,27,1,385,1
17379,27,2,444,1
17380,27,1,373,1
17381,27,2,393,1
17382,27,1,364,1
17383,27,2,480,1
17384,27,1,327,1
17385,27,2,365,1
17386,27,2,473,1
17387,27,2,377,1
17388,27,2,460,1
17389,27,1,372,1
17390,27,1,416,1
17391,27,1,466,1
17392,27,2,426,1
17393,27,1,436,1
17394,27,2,461,1
17395,27,2,469,1
17396,27,1,541,1
17397,27,2,451,1
17398,27,2,491,1
17399,27,1,387,1
17400,27,1,454,1
17401,27,2,479,1
17402,27,1,374,1
17403,27,1,450,1
17404,27,2,467,1
17405,27,1,419,1
17406,27,1,525,1
17407,27,2,458,1
17504,27,2,510,1
17505,27,1,461,1
17506,27,1,397,1
17507,27,1,359,1
17508,27,1,340,1
17509,27,2,473,1
17510,27,2,401,1
17511,27,1,324,1
17512,27,1,298,1
17513,27,2,472,1
17514,27,2,408,1
17515,27,1,275,1
17516,27,1,355,1
17517,27,1,336,1
17518,27,1,389,1
17519,27,1,336,1
17520,27,2,422,1
17521,27,2,440,1
17522,27,2,361,1
17523,27,2,493,1
17524,27,1,324,1
17525,27,2,433,1
17526,27,1,548,1
17527,27,1,447,1
17528,27,2,488,1
17529,27,1,431,1
17530,27,2,369,1
17531,27,2,541,1
17532,27,2,330,1
17533,27,2,375,1
17534,27,1,427,1
17535,27,2,341,0
17632,27,2,546,1
17633,27,1,407,1
17634,27,2,401,1
17635,27,1,364,1
17636,27,2,600,1
17637,27,1,331,1
17638,27,1,384,1
17639,27,1,275,1
17640,27,1,331,1
17641,27,2,288,0
17642,27,1,387,1
17643,27,2,447,1
17644,27,1,335,1
17645,27,1,325,1
17646,27,1,459,1
17647,27,1,379,1
17648,27,2,415,1
17649,27,2,369,1
17650,27,2,349,1
17651,27,2,337,1
17652,27,2,351,1
17653,27,1,419,1
17654,27,1,349,1
17655,27,2,466,1
17656,27,1,362,1
17657,27,2,350,1
17658,27,1,299,1
17659,27,1,305,1
17660,27,2,320,0
17661,27,2,410,1
17662,27,2,412,1
17663,27,2,326,1
17760,27,2,421,1
17761,27,2,343,1
17762,27,2,339,0
17763,27,1,349,1
17764,27,1,354,1
17765,27,2,422,1
17766,27,1,360,1
17767,27,1,364,1
17768,27,1,352,1
17769,27,2,397,1
17770,27,2,504,1
17771,27,1,470,1
17772,27,1,398,1
17773,27,1,409,1
17774,27,1,372,1
17775,27,2,400,1
17776,27,2,434,1
17777,27,2,292,1
17778,27,1,387,1
17779,27,2,334,1
17780,27,1,340,1
17781,27,2,313,1
17782,27,1,391,1
17783,27,2,642,1
17784,27,2,404,1
17785,27,1,350,1
17786,27,2,555,1
17787,27,1,440,1
17788,27,2,401,1
17789,27,1,348,1
17790,27,2,368,1
17791,27,1,540,1
17888,27,1,472,1
17889,27,1,328,1
17890,27,1,365,1
17891,27,1,345,1
17892,27,1,366,1
17893,27,2,330,0
17894,27,2,387,1
17895,27,2,383,1
17896,27,1,386,1
17897,27,1,325,1
17898,27,1,379,1
17899,27,2,407,1
17900,27,2,449,1
17901,27,2,314,0
17902,27,1,356,1
17903,27,2,537,1
17904,27,2,438,1
17905,27,1,424,1
17906,27,1,346,1
17907,27,2,374,1
17908,27,1,322,1
17909,27,2,376,1
17910,27,1,388,1
17911,27,1,327,1
17912,27,2,364,1
17913,27,2,376,1
17914,27,2,404,1
17915,27,2,398,1
17916,27,1,289,1
17917,27,1,360,1
17918,27,2,412,1
17919,27,2,414,1
18080,28,2,484,1
18081,28,1,419,1
18082,28,2,349,1
18083,28,1,354,1
18084,28,1,374,1
18085,28,2,426,1
18086,28,2,388,1
18087,28,1,383,1
18088,28,1,386,1
18089,28,2,462,1
18090,28,1,422,1
18091,28,1,440,1
18092,28,2,425,1
18093,28,1,435,1
18094,28,2,420,1
18095,28,1,350,1
18096,28,2,483,1
18097,28,1,530,1
18098,28,2,440,1
18099,28,1,1081,1
18100,28,2,481,1
18101,28,2,448,1
18102,28,2,409,1
18103,28,2,443,1
18104,28,1,500,1
18105,28,1,443,1
18106,28,1,452,1
18107,28,2,445,1
18108,28,2,453,1
18109,28,1,366,1
18110,28,2,433,1
18111,28,1,434,1
18208,28,2,545,1
18209,28,2,414,1
18210,28,1,368,1
18211,28,1,364,1
18212,28,1,368,1
18213,28,2,380,1
18214,28,1,351,1
18215,28,1,404,1
18216,28,1,391,1
18217,28,2,434,1
18218,28,2,427,1
18219,28,2,493,1
18220,28,2,436,1
18221,28,2,445,1
18222,28,1,454,1
18223,28,1,343,1
18224,28,2,396,0
18225,28,1,459,1
18226,28,2,500,1
18227,28,2,395,1
18228,28,2,453,1
18229,28,1,526,1
18230,28,1,524,1
18231,28,1,450,1
18232,28,2,410,1
18233,28,2,508,1
18234,28,1,378,1
18235,28,1,366,1
18236,28,1,442,1
18237,28,1,459,1
18238,28,2,379,0
18239,28,2,475,1
18336,28,1,371,1
18337,28,1,383,1
18338,28,1,331,1
18339,28,1,360,1
18340,28,2,492,1
18341,28,2,435,1
18342,28,1,389,1
18343,28,2,432,1
18344,28,1,481,1
18345,28,1,441,1
18346,28,1,418,1
18347,28,2,444,1
18348,28,2,453,1
18349,28,2,397,1
18350,28,2,424,1
18351,28,2,370,1
18352,28,1,382,1
18353,28,1,409,1
18354,28,2,499,1
18355,28,2,378,1
18356,28,1,373,1
18357,28,2,401,1
18358,28,2,444,1
18359,28,1,380,1
18360,28,2,480,1
18361,28,2,423,1
18362,28,1,385,1
18363,28,1,460,1
18364,28,1,396,1
18365,28,1,399,1
18366,28,2,506,1
18367,28,2,440,1
18464,28,2,460,1
18465,28,2,428,1
18466,28,1,325,1
18467,28,2,435,1
18468,28,2,412,1
18469,28,1,382,1
18470,28,2,554,1
18471,28,2,406,1
18472,28,2,489,1
18473,28,2,424,1
18474,28,2,482,1
18475,28,1,346,1
18476,28,2,422,1
18477,28,1,359,1
18478,28,1,363,1
18479,28,1,447,1
18480,28,1,376,1
18481,28,2,443,1
18482,28,1,356,1
18483,28,2,425,1
18484,28,2,403,1
18485,28,1,437,1
18486,28,2,463,1
18487,28,1,447,1
18488,28,1,407,1
18489,28,1,418,1
18490,28,1,516,0
18491,28,1,455,1
18492,28,2,447,1
18493,28,1,440,1
18494,28,2,457,1
18495,28,1,514,1
18592,28,1,525,1
18593,28,2,403,1
18594,28,1,365,1
18595,28,1,385,1
18596,28,1,341,1
18597,28,1,458,1
18598,28,2,491,1
18599,28,2,426,1
18600,28,2,451,1
18601,28,1,364,1
18602,28,2,464,1
18603,28,2,456,1
18604,28,1,360,1
18605,28,1,356,1
18606,28,2,417,1
18607,28,1,395,1
18608,28,2,438,1
18609,28,1,423,1
18610,28,1,409,1
18611,28,2,380,1
18612,28,1,375,1
18613,28,1,395,1
18614,28,1,398,1
18615,28,2,392,1
18616,28,2,380,1
18617,28,2,431,1
18618,28,2,448,1
18619,28,1,345,1
18620,28,1,390,1
18621,28,2,417,1
18622,28,2,403,1
18623,28,2,414,1
18720,28,1,360,1
18721,28,2,452,1
18722,28,1,333,1
18723,28,2,458,1
18724,28,1,434,1
18725,28,1,452,1
18726,28,1,429,1
18727,28,2,494,1
18728,28,1,357,1
18729,28,1,417,1
18730,28,1,387,1
18731,28,2,574,1
18732,28,1,371,1
18733,28,2,447,1
18734,28,2,439,1
18735,28,1,465,1
18736,28,2,465,1
18737,28,1,369,1
18738,28,2,453,1
18739,28,1,437,1
18740,28,2,415,1
18741,28,1,385,1
18742,28,2,380,1
18743,28,2,343,1
18744,28,1,516,1
18745,28,2,466,1
18746,28,2,426,1
18747,28,2,556,1
18748,28,1,409,1
18749,28,1,371,1
18750,28,2,535,1
18751,28,2,373,1
19008,29,2,652,1
19009,29,1,380,1
19010,29,2,392,1
19011,29,2,443,1
19012,29,1,828,1
19013,29,2,565,1
19014,29,1,377,1
19015,29,2,476,1
19016,29,2,444,1
19017,29,1,364,1
19018,29,2,352,1
19019,29,2,381,1
19020,29,1,440,1
19021,29,1,402,1
19022,29,1,356,1
19023,29,2,457,1
19024,29,1,330,1
19025,29,2,343,1
19026,29,1,340,1
19027,29,1,345,1
19028,29,1,382,1
19029,29,2,361,0
19030,29,1,593,1
19031,29,2,396,1
19032,29,1,399,1
19033,29,1,321,1
19034,29,1,359,1
19035,29,1,531,1
19036,29,2,465,1
19037,29,2,361,1
19038,29,2,397,1
19039,29,2,431,1
19136,29,1,479,1
19137,29,2,390,1
19138,29,2,345,1
19139,29,1,382,1
19140,29,1,385,1
19141,29,1,373,1
19142,29,2,409,1
19143,29,1,475,1
19144,29,2,347,0
19145,29,2,597,1
19146,29,1,455,1
19147,29,2,416,1
19148,29,1,330,1
19149,29,2,359,1
19150,29,1,396,1
19151,29,2,287,0
19152,29,2,634,1
19153,29,1,580,1
19154,29,1,343,1
19155,29,2,412,1
19156,29,2,342,1
19157,29,1,371,1
19158,29,1,391,1
19159,29,1,354,1
19160,29,2,343,1
19161,29,2,492,1
19162,29,1,356,1
19163,29,2,384,1
19164,29,1,340,1
19165,29,2,337,1
19166,29,1,294,1
19167,29,2,357,1
19264,29,1,532,1
19265,29,1,329,1
19266,29,2,510,1
19267,29,2,364,1
19268,29,2,304,1
19269,29,2,391,1
19270,29,1,330,0
19271,29,1,444,1
19272,29,1,325,1
19273,29,2,354,1
19274,29,2,486,1
19275,29,2,374,1
19276,29,1,458,1
19277,29,1,394,1
19278,29,2,453,1
19279,29,1,382,1
19280,29,1,569,1
19281,29,1,373,1
19282,29,2,401,1
19283,29,2,380,0
19284,29,2,387,1
19285,29,1,447,1
19286,29,1,359,1
19287,29,2,379,1
19288,29,2,391,1
19289,29,1,378,1
19290,29,1,325,1
19291,29,2,379,1
19292,29,2,343,1
19293,29,1,435,1
19294,29,1,389,1
19295,29,2,440,1
19392,29,1,519,1
19393,29,2,373,1
19394,29,2,369,1
19395,29,1,357,1
19396,29,1,282,1
19397,29,1,321,1
19398,29,2,503,1
19399,29,1,365,1
19400,29,2,313,1
19401,29,1,343,1
19402,29,1,284,1
19403,29,1,331,1
19404,29,2,305,1
19405,29,1,343,1
19406,29,1,324,1
19407,29,1,378,1
19408,29,2,501,1
19409,29,1,364,1
19410,29,2,528,1
19411,29,2,325,1
19412,29,2,387,1
19413,29,2,327,1
19414,29,2,276,1
19415,29,2,356,1
19416,29,2,328,1
19417,29,2,350,1
19418,29,1,354,1
19419,29,2,375,1
19420,29,1,523,1
19421,29,2,401,1
19422,29,1,420,1
19423,29,1,398,0
19520,29,2,613,1
19521,29,1,471,1
19522,29,2,423,1
19523,29,1,417,1
19524,29,1,379,1
19525,29,1,366,1
19526,29,1,370,1
19527,29,2,334,1
19528,29,1,500,1
19529,29,1,442,0
19530,29,1,424,1
19531,29,1,650,1
19532,29,1,435,1
19533,29,2,356,1
19534,29,1,401,1
19535,29,2,372,1
19536,29,2,376,0
19537,29,2,543,1
19538,29,2,380,1
19539,29,2,351,1
19540,29,2,412,1
19541,29,1,302,1
19542,29,2,364,1
19543,29,1,368,1
19544,29,2,332,1
19545,29,1,386,1
19546,29,2,421,1
19547,29,2,383,1
19548,29,1,354,1
19549,29,2,455,1
19550,29,1,480,1
19551,29,2,431,1
19648,29,1,393,1
19649,29,1,379,1
19650,29,2,359,0
19651,29,1,400,1
19652,29,1,347,1
19653,29,2,439,1
19654,29,1,521,1
19655,29,1,631,1
19656,29,2,368,1
19657,29,2,380,1
19658,29,2,391,1
19659,29,2,363,1
19660,29,1,359,1
19661,29,1,347,1
19662,29,2,320,1
19663,29,2,398,1
19664,29,1,352,0
19665,29,2,498,1
19666,29,1,376,1
19667,29,1,388,1
19668,29,2,415,1
19669,29,1,329,1
19670,29,1,374,1
19671,29,2,322,1
19672,29,2,344,1
19673,29,1,349,1
19674,29,1,425,1
19675,29,2,307,0
19676,29,1,391,1
19677,29,2,410,1
19678,29,2,452,1
19679,29,2,485,1
19936,3,2,564,1
19937,3,1,416,1
19938,3,2,449,1
19939,3,1,425,1
19940,3,1,483,1
19941,3,2,491,1
19942,3,2,402,1
19943,3,2,509,1
19944,3,1,515,1
19945,3,1,426,1
19946,3,2,428,1
19947,3,1,429,1
19948,3,2,438,1
19949,3,1,504,1
19950,3,1,550,1
19951,3,1,331,1
19952,3,2,368,1
19953,3,2,372,0
19954,3,1,1109,1
19955,3,1,388,1
19956,3,2,439,1
19957,3,2,416,1
19958,3,1,458,0
19959,3,1,464,1
19960,3,2,448,1
19961,3,2,384,1
19962,3,1,404,1
19963,3,1,630,1
19964,3,1,376,1
19965,3,2,548,1
19966,3,2,448,1
19967,3,2,441,1
20064,3,2,475,1
20065,3,1,587,1
20066,3,2,470,1
20067,3,2,390,1
20068,3,2,425,1
20069,3,2,395,1
20070,3,1,446,1
20071,3,2,383,1
20072,3,1,426,1
20073,3,1,387,1
20074,3,1,455,1
20075,3,1,319,1
20076,3,2,381,1
20077,3,1,417,1
20078,3,1,483,1
20079,3,2,434,1
20080,3,1,467,1
20081,3,2,619,1
20082,3,1,365,1
20083,3,2,425,1
20084,3,1,347,1
20085,3,2,360,1
20086,3,1,404,1
20087,3,2,495,1
20088,3,1,525,1
20089,3,1,644,1
20090,3,1,364,1
20091,3,2,392,1
20092,3,2,332,0
20093,3,1,517,1
20094,3,2,451,1
20095,3,2,428,1
20192,3,1,499,1
20193,3,2,457,1
20194,3,1,418,1
20195,3,2,516,1
20196,3,2,450,1
20197,3,2,387,1
20198,3,1,382,1
20199,3,1,305,1
20200,3,1,352,1
20201,3,2,349,1
20202,3,1,409,1
20203,3,1,420,1
20204,3,2,566,1
20205,3,2,418,1
20206,3,1,324,1
20207,3,2,434,1
20208,3,2,355,0
20209,3,2,421,1
20210,3,1,391,1
20211,3,1,394,1
20212,3,1,725,1
20213,3,2,450,1
20214,3,1,394,1
20215,3,2,493,1
20216,3,2,396,1
20217,3,2,494,1
20218,3,2,509,1
20219,3,1,363,1
20220,3,2,375,1
20221,3,1,459,1
20222,3,1,411,1
20223,3,1,453,1
20320,3,1,398,1
20321,3,1,496,1
20322,3,2,399,1
20323,3,1,498,1
20324,3,1,384,1
20325,3,2,372,1
20326,3,1,512,1
20327,3,1,494,1
20328,3,2,404,1
20329,3,2,374,1
20330,3,2,338,0
20331,3,2,396,1
20332,3,2,446,1
20333,3,1,359,1
20334,3,2,387,1
20335,3,1,454,1
20336,3,1,383,1
20337,3,1,498,1
20338,3,1,433,1
20339,3,1,483,1
20340,3,2,418,1
20341,3,1,828,1
20342,3,2,629,1
20343,3,1,415,1
20344,3,1,929,1
20345,3,2,366,1
20346,3,2,434,1
20347,3,2,428,1
20348,3,2,405,1
20349,3,1,448,1
20350,3,2,376,1
20351,3,2,364,1
20448,3,1,350,1
20449,3,2,555,1
20450,3,2,487,0
20451,3,2,499,1
20452,3,2,458,1
20453,3,2,443,1
20454,3,1,435,1
20455,3,2,397,1
20456,3,1,439,1
20457,3,1,505,1
20458,3,2,455,1
20459,3,1,400,1
20460,3,2,347,1
20461,3,2,535,1
20462,3,1,669,1
20463,3,1,461,1
20464,3,1,437,1
20465,3,2,374,1
20466,3,1,402,1
20467,3,1,413,1
20468,3,1,439,1
20469,3,2,416,1
20470,3,1,434,1
20471,3,2,379,1
20472,3,2,671,1
20473,3,2,487,1
20474,3,2,550,1
20475,3,1,731,1
20476,3,1,464,1
20477,3,2,752,1
20478,3,1,573,1
20479,3,1,529,1
20576,3,2,504,1
20577,3,1,334,1
20578,3,2,356,1
20579,3,2,456,1
20580,3,1,465,1
20581,3,2,385,1
20582,3,1,420,1
20583,3,1,462,1
20584,3,1,470,0
20585,3,1,387,1
20586,3,2,350,1
20587,3,1,403,1
20588,3,2,381,1
20589,3,2,401,1
20590,3,2,347,0
20591,3,1,605,1
20592,3,2,479,1
20593,3,1,447,1
20594,3,1,447,1
20595,3,1,592,1
20596,3,1,507,1
20597,3,2,426,1
20598,3,2,412,1
20599,3,1,357,1
20600,3,2,330,1
20601,3,2,631,1
20602,3,2,481,1
20603,3,2,432,1
20604,3,1,561,1
20605,3,1,389,1
20606,3,2,473,1
20607,3,1,385,1
20736,30,2,568,1
20737,30,1,500,1
20738,30,1,363,1
20739,30,2,422,1
20740,30,2,368,1
20741,30,1,348,1
20742,30,2,401,1
20743,30,2,460,1
20744,30,2,324,1
20745,30,2,418,1
20746,30,1,412,1
20747,30,2,326,1
20748,30,2,364,1
20749,30,1,408,1
20750,30,1,514,1
20751,30,1,664,1
20752,30,2,704,1
20753,30,1,423,1
20754,30,1,345,1
20755,30,2,350,1
20756,30,1,386,1
20757,30,1,350,1
20758,30,2,402,1
20759,30,2,341,1
20760,30,2,458,1
20761,30,1,363,1
20762,30,2,479,1
20763,30,1,550,1
20764,30,1,539,1
20765,30,1,392,1
20766,30,2,412,1
20767,30,1,366,1
20864,30,1,492,1
20865,30,2,331,1
20866,30,1,344,1
20867,30,1,373,1
20868,30,2,369,1
20869,30,1,509,1
20870,30,1,428,1
20871,30,2,349,1
20872,30,1,482,1
20873,30,2,377,1
20874,30,2,348,1
20875,30,2,313,1
20876,30,2,575,1
20877,30,2,331,1
20878,30,2,376,1
20879,30,2,364,1
20880,30,2,384,1
20881,30,2,388,1
20882,30,1,343,1
20883,30,1,388,1
20884,30,1,375,1
20885,30,1,442,1
20886,30,2,371,1
20887,30,1,1047,1
20888,30,2,376,1
20889,30,1,451,1
20890,30,2,364,1
20891,30,1,304,1
20892,30,1,295,1
20893,30,2,341,1
20894,30,1,450,1
20895,30,1,331,1
20992,30,2,441,1
20993,30,1,434,1
20994,30,2,692,1
20995,30,1,523,1
20996,30,1,585,1
20997,30,1,556,1
20998,30,1,409,1
20999,30,2,516,1
21000,30,2,658,1
21001,30,1,650,1
21002,30,2,707,1
21003,30,1,474,1
21004,30,2,514,1
21005,30,2,487,1
21006,30,1,414,1
21007,30,1,360,1
21008,30,2,340,0
21009,30,2,526,1
21010,30,2,316,1
21011,30,2,345,1
21012,30,2,446,1
21013,30,1,423,1
21014,30,2,377,1
21015,30,1,356,1
21016,30,2,337,1
21017,30,2,318,0
21018,30,1,345,1
21019,30,1,429,1
21020,30,2,407,1
21021,30,1,377,1
21022,30,1,548,1
21023,30,1,369,1
21120,30,1,452,1
21121,30,1,436,1
21122,30,1,462,1
21123,30,2,422,1
21124,30,1,376,1
21125,30,1,355,1
21126,30,1,384,1
21127,30,1,387,1
21128,30,1,382,1
21129,30,2,482,1
21130,30,2,313,1
21131,30,2,303,1
21132,30,2,390,1
21133,30,1,433,1
21134,30,2,426,1
21135,30,2,476,1
21136,30,1,1084,1
21137,30,1,675,1
21138,30,2,739,1
21139,30,1,433,1
21140,30,2,418,1
21141,30,1,612,1
21142,30,2,422,1
21143,30,1,360,1
21144,30,2,324,0
21145,30,2,614,1
21146,30,2,305,1
21147,30,2,439,1
21148,30,1,385,1
21149,30,1,332,1
21150,30,2,321,1
21151,30,2,359,1
21248,30,2,411,1
21249,30,2,405,0
21250,30,2,516,1
21251,30,2,370,1
21252,30,2,358,1
21253,30,1,419,1
21254,30,1,365,1
21255,30,2,417,1
21256,30,2,331,0
21257,30,2,412,0
21258,30,2,467,1
21259,30,2,331,1
21260,30,2,360,1
21261,30,2,508,1
21262,30,1,347,1
21263,30,2,416,1
21264,30,2,386,1
21265,30,1,341,1
21266,30,1,450,1
21267,30,1,355,1
21268,30,1,367,1
21269,30,1,307,1
21270,30,1,426,1
21271,30,2,451,1
21272,30,1,324,1
21273,30,1,434,1
21274,30,1,371,1
21275,30,1,351,1
21276,30,1,300,1
21277,30,1,299,1
21278,30,2,369,1
21279,30,1,341,1
21376,30,2,450,1
21377,30,1,347,1
21378,30,2,408,1
21379,30,2,362,1
21380,30,1,358,1
21381,30,2,363,1
21382,30,2,479,1
21383,30,1,342,1
21384,30,2,339,1
21385,30,1,457,1
21386,30,1,409,1
21387,30,1,300,1
21388,30,2,411,1
21389,30,2,373,1
21390,30,1,409,1
21391,30,2,395,1
21392,30,2,406,1
21393,30,2,497,1
21394,30,1,415,1
21395,30,1,401,1
21396,30,2,396,1
21397,30,1,391,1
21398,30,2,338,1
21399,30,1,302,1
21400,30,2,397,1
21401,30,2,416,1
21402,30,1,354,1
21403,30,1,310,1
21404,30,1,292,0
21405,30,1,415,1
21406,30,2,337,1
21407,30,1,311,1
21728,31,1,460,1
21729,31,2,524,1
21730,31,1,482,1
21731,31,2,481,1
21732,31,1,425,1
21733,31,2,507,1
21734,31,1,465,1
21735,31,1,345,1
21736,31,1,478,1
21737,31,1,333,1
21738,31,2,339,0
21739,31,2,444,1
21740,31,2,469,1
21741,31,1,605,1
21742,31,1,320,1
21743,31,2,470,1
21744,31,1,494,1
21745,31,1,476,1
21746,31,1,564,1
21747,31,1,312,1
21748,31,2,446,1
21749,31,1,471,1
21750,31,2,519,1
21751,31,2,357,1
21752,31,2,497,1
21753,31,2,463,1
21754,31,1,511,1
21755,31,2,509,1
21756,31,2,419,1
21757,31,2,645,1
21758,31,2,702,1
21759,31,1,500,1
21856,31,1,494,1
21857,31,2,429,1
21858,31,2,478,1
21859,31,1,334,1
21860,31,2,410,1
21861,31,2,364,1
21862,31,2,384,1
21863,31,1,443,1
21864,31,1,404,1
21865,31,2,431,1
21866,31,2,432,1
21867,31,1,337,1
21868,31,1,359,1
21869,31,1,483,1
21870,31,2,491,1
21871,31,1,354,1
21872,31,2,567,1
21873,31,1,387,1
21874,31,2,398,1
21875,31,2,449,1
21876,31,1,505,1
21877,31,1,432,1
21878,31,2,561,1
21879,31,1,469,1
21880,31,2,541,1
21881,31,2,403,1
21882,31,1,533,1
21883,31,1,419,1
21884,31,1,453,1
21885,31,1,374,1
21886,31,2,402,1
21887,31,2,436,1
21984,31,1,516,1
21985,31,1,330,1
21986,31,1,488,1
21987,31,2,447,1
21988,31,1,320,1
21989,31,1,334,1
21990,31,2,379,0
21991,31,2,467,1
21992,31,1,443,1
21993,31,2,372,1
21994,31,2,503,1
21995,31,2,518,0
21996,31,2,449,1
21997,31,2,457,1
21998,31,2,482,1
21999,31,1,393,1
22000,31,2,396,1
22001,31,1,487,1
22002,31,1,422,1
22003,31,1,400,1
22004,31,2,403,1
22005,31,1,421,1
22006,31,1,455,1
22007,31,2,368,0
22008,31,1,385,1
22009,31,2,476,1
22010,31,2,444,1
22011,31,1,469,1
22012,31,2,469,1
22013,31,1,397,1
22014,31,2,495,0
22015,31,1,426,1
22112,31,2,445,1
22113,31,2,317,1
22114,31,2,347,1
22115,31,2,384,1
22116,31,1,387,1
22117,31,1,375,1
22118,31,2,419,1
22119,31,2,405,1
22120,31,1,487,1
22121,31,1,415,1
22122,31,1,361,1
22123,31,2,357,1
22124,31,2,313,0
22125,31,1,579,1
22126,31,2,438,1
22127,31,1,472,1
22128,31,2,384,1
22129,31,1,491,1
22130,31,2,354,1
22131,31,1,399,1
22132,31,1,330,1
22133,31,1,335,1
22134,31,1,364,1
22135,31,2,376,0
22136,31,2,392,1
22137,31,1,379,1
22138,31,1,311,1
22139,31,2,261,0
22140,31,2,417,1
22141,31,1,363,1
22142,31,1,375,1
22143,31,2,347,1
22240,31,2,527,0
22241,31,2,473,1
22242,31,1,417,1
22243,31,1,347,1
22244,31,2,351,0
22245,31,2,392,1
22246,31,1,435,1
22247,31,2,372,0
22248,31,1,437,1
22249,31,1,366,1
22250,31,1,394,1
22251,31,2,461,1
22252,31,2,429,1
22253,31,2,398,1
22254,31,2,409,1
22255,31,1,396,1
22256,31,2,398,1
22257,31,1,361,1
22258,31,1,397,0
22259,31,1,412,1
22260,31,1,366,1
22261,31,1,546,1
22262,31,2,415,1
22263,31,2,417,1
22264,31,2,403,1
22265,31,2,357,1
22266,31,1,442,1
22267,31,2,491,1
22268,31,1,395,1
22269,31,1,365,1
22270,31,1,377,1
22271,31,2,453,1
22368,31,1,410,1
22369,31,2,380,1
22370,31,2,359,1
22371,31,2,396,0
22372,31,1,451,1
22373,31,1,348,1
22374,31,1,416,1
22375,31,2,338,1
22376,31,2,400,1
22377,31,2,370,1
22378,31,2,430,1
22379,31,1,560,1
22380,31,1,380,1
22381,31,1,359,1
22382,31,2,347,1
22383,31,1,464,1
22384,31,1,448,0
22385,31,2,365,1
22386,31,2,441,1
22387,31,2,443,1
22388,31,1,508,1
22389,31,1,467,1
22390,31,1,419,1
22391,31,1,501,1
22392,31,2,467,1
22393,31,1,507,1
22394,31,2,442,1
22395,31,2,443,1
22396,31,2,508,1
22397,31,2,395,1
22398,31,1,365,1
22399,31,1,417,1
22560,32,1,428,1
22561,32,1,462,1
22562,32,1,414,1
22563,32,2,432,1
22564,32,2,561,1
22565,32,2,437,1
22566,32,1,638,1
22567,32,1,360,1
22568,32,1,356,1
22569,32,1,448,1
22570,32,2,441,1
22571,32,1,562,1
22572,32,2,526,1
22573,32,1,404,1
22574,32,2,606,1
22575,32,2,481,1
22576,32,2,376,1
22577,32,1,420,1
22578,32,2,582,1
22579,32,1,345,1
22580,32,2,446,1
22581,32,2,422,1
22582,32,2,536,1
22583,32,1,558,1
22584,32,1,323,1
22585,32,2,417,1
22586,32,2,491,1
22587,32,2,490,1
22588,32,1,377,1
22589,32,1,381,1
22590,32,1,368,1
22591,32,2,436,1
22688,32,1,481,1
22689,32,2,584,1
22690,32,1,427,1
22691,32,1,405,1
22692,32,1,367,1
22693,32,1,379,1
22694,32,2,479,1
22695,32,2,486,1
22696,32,2,373,1
22697,32,2,424,1
22698,32,2,490,1
22699,32,1,434,1
22700,32,1,403,1
22701,32,1,390,1
22702,32,2,513,1
22703,32,1,527,1
22704,32,2,444,1
22705,32,1,421,1
22706,32,2,495,1
22707,32,1,566,1
22708,32,1,530,1
22709,32,2,551,1
22710,32,2,412,1
22711,32,1,430,1
22712,32,1,399,1
22713,32,2,442,1
22714,32,2,467,1
22715,32,1,395,1
22716,32,2,574,1
22717,32,2,386,1
22718,32,1,413,1
22719,32,2,479,1
22816,32,1,587,1
22817,32,2,583,1
22818,32,2,426,1
22819,32,1,475,1
22820,32,2,531,1
22821,32,2,377,1
22822,32,1,452,1
22823,32,1,413,1
22824,32,2,383,1
22825,32,1,482,1
22826,32,1,466,1
22827,32,2,506,1
22828,32,1,480,1
22829,32,1,392,1
22830,32,1,499,1
22831,32,1,450,1
22832,32,2,442,1
22833,32,2,492,1
22834,32,2,435,1
22835,32,2,468,1
22836,32,1,396,1
22837,32,1,415,1
22838,32,1,313,1
22839,32,2,447,1
22840,32,2,416,1
22841,32,2,474,1
22842,32,1,514,1
22843,32,1,488,1
22844,32,2,567,1
22845,32,1,411,1
22846,32,2,493,1
22847,32,2,452,1
22944,32,2,623,1
22945,32,2,337,1
22946,32,2,446,1
22947,32,2,847,1
22948,32,2,416,1
22949,32,2,410,1
22950,32,2,364,1
22951,32,1,384,1
22952,32,2,403,1
22953,32,2,374,0
22954,32,2,510,1
22955,32,2,412,1
22956,32,1,574,1
22957,32,1,410,1
22958,32,1,532,1
22959,32,1,410,1
22960,32,2,468,1
22961,32,1,420,1
22962,32,1,382,1
22963,32,1,449,1
22964,32,1,410,1
22965,32,1,340,1
22966,32,1,377,1
22967,32,1,405,1
22968,32,2,886,1
22969,32,1,470,1
22970,32,2,454,1
22971,32,1,423,1
22972,32,1,353,1
22973,32,1,397,1
22974,32,2,568,1
22975,32,2,420,1
23072,32,1,412,1
23073,32,2,502,1
23074,32,2,484,1
23075,32,2,532,1
23076,32,1,513,1
23077,32,2,423,1
23078,32,1,393,1
23079,32,2,420,1
23080,32,1,414,1
23081,32,2,384,1
23082,32,2,547,1
23083,32,1,472,1
23084,32,2,528,1
23085,32,1,477,1
23086,32,2,453,1
23087,32,1,373,1
23088,32,1,377,1
23089,32,1,508,1
23090,32,1,419,1
23091,32,2,389,1
23092,32,2,649,1
23093,32,2,569,1
23094,32,1,501,1
23095,32,1,4388,1
23096,32,2,561,1
23097,32,2,541,1
23098,32,1,434,1
23099,32,2,539,1
23100,32,1,425,1
23101,32,1,299,1
23102,32,1,393,1
23103,32,2,508,1
23200,32,2,551,1
23201,32,2,915,1
23202,32,2,410,1
23203,32,2,476,1
23204,32,2,460,1
23205,32,2,484,1
23206,32,2,387,1
23207,32,1,438,1
23208,32,2,504,1
23209,32,2,462,1
23210,32,2,390,1
23211,32,1,466,1
23212,32,1,506,1
23213,32,2,448,1
23214,32,1,497,1
23215,32,2,448,1
23216,32,1,536,1
23217,32,2,486,1
23218,32,1,365,1
23219,32,1,449,1
23220,32,1,434,1
23221,32,1,363,1
23222,32,1,399,1
23223,32,1,418,1
23224,32,2,476,1
23225,32,1,476,1
23226,32,1,2092,1
23227,32,2,492,1
23228,32,1,371,1
23229,32,1,358,1
23230,32,2,491,1
23231,32,1,394,1
23456,4,1,672,0
23457,4,2,844,0
23458,4,1,570,1
23459,4,1,1054,1
23460,4,1,431,1
23461,4,1,576,1
23462,4,2,691,1
23463,4,1,1371,1
23464,4,2,567,1
23465,4,2,763,1
23466,4,1,1239,1
23467,4,2,521,1
23468,4,1,455,1
23469,4,2,504,1
23470,4,1,558,1
23471,4,2,1195,1
23472,4,2,502,1
23473,4,1,501,1
23474,4,1,435,1
23475,4,1,493,1
23476,4,2,508,1
23477,4,1,507,1
23478,4,2,745,1
23479,4,1,438,1
23480,4,2,440,1
23481,4,1,505,1
23482,4,2,456,1
23483,4,2,559,1
23484,4,1,1259,1
23485,4,2,540,1
23486,4,2,1105,1
23487,4,2,560,1
23584,4,2,694,1
23585,4,2,740,1
23586,4,1,858,1
23587,4,1,571,1
23588,4,2,631,1
23589,4,1,448,1
23590,4,2,417,1
23591,4,2,483,1
23592,4,2,474,1
23593,4,2,522,1
23594,4,1,560,1
23595,4,1,427,1
23596,4,1,485,1
23597,4,2,524,1
23598,4,2,522,0
23599,4,2,613,1
23600,4,1,1159,1
23601,4,2,500,1
23602,4,1,1010,1
23603,4,1,509,1
23604,4,1,699,1
23605,4,1,1074,1
23606,4,1,442,1
23607,4,2,508,1
23608,4,2,626,0
23609,4,1,632,1
23610,4,2,602,0
23611,4,1,873,1
23612,4,1,473,1
23613,4,2,513,1
23614,4,1,471,1
23615,4,2,511,1
23712,4,1,715,1
23713,4,2,529,1
23714,4,2,518,1
23715,4,1,420,1
23716,4,2,462,1
23717,4,1,430,1
23718,4,2,512,1
23719,4,1,478,1
23720,4,1,573,1
23721,4,2,521,1
23722,4,2,439,1
23723,4,1,481,1
23724,4,1,448,1
23725,4,1,425,1
23726,4,2,427,1
23727,4,2,756,1
23728,4,1,985,1
23729,4,1,388,1
23730,4,1,376,1
23731,4,1,420,1
23732,4,2,398,1
23733,4,1,440,1
23734,4,2,458,1
23735,4,1,490,1
23736,4,2,522,1
23737,4,2,448,1
23738,4,2,448,1
23739,4,2,465,1
23740,4,1,1209,1
23741,4,1,492,1
23742,4,2,451,1
23743,4,2,420,1
23840,4,1,581,1
23841,4,2,528,1
23842,4,1,542,1
23843,4,2,483,1
23844,4,2,538,1
23845,4,1,488,1
23846,4,2,511,1
23847,4,2,469,1
23848,4,2,509,1
23849,4,1,740,1
23850,4,1,433,1
23851,4,2,723,1
23852,4,2,569,1
23853,4,1,1445,1
23854,4,1,398,1
23855,4,1,416,1
23856,4,1,546,1
23857,4,2,719,0
23858,4,1,466,1
23859,4,1,434,1
23860,4,1,339,1
23861,4,2,456,1
23862,4,2,568,1
23863,4,2,420,1
23864,4,1,414,1
23865,4,2,464,1
23866,4,2,480,1
23867,4,2,439,1
23868,4,2,425,1
23869,4,1,659,1
23870,4,1,612,1
23871,4,1,438,1
23968,4,2,608,1
23969,4,1,563,1
23970,4,1,583,1
23971,4,2,546,1
23972,4,2,487,1
23973,4,1,398,1
23974,4,1,448,1
23975,4,1,464,1
23976,4,1,400,1
23977,4,2,811,1
23978,4,1,557,1
23979,4,2,530,1
23980,4,2,1175,0
23981,4,1,616,1
23982,4,1,434,1
23983,4,2,604,1
23984,4,1,462,1
23985,4,1,398,1
23986,4,2,513,1
23987,4,2,423,1
23988,4,1,433,1
23989,4,2,482,1
23990,4,1,1114,1
23991,4,1,384,1
23992,4,2,499,1
23993,4,1,930,1
23994,4,2,583,1
23995,4,2,579,1
23996,4,1,654,0
23997,4,2,427,1
23998,4,2,469,1
23999,4,2,549,1
24096,4,1,577,0
24097,4,2,489,0
24098,4,2,613,1
24099,4,1,439,1
24100,4,1,392,1
24101,4,1,524,1
24102,4,2,434,1
24103,4,1,491,1
24104,4,2,546,1
24105,4,1,415,1
24106,4,2,465,1
24107,4,1,481,1
24108,4,2,457,1
24109,4,1,505,1
24110,4,1,544,1
24111,4,1,405,1
24112,4,1,623,1
24113,4,1,761,1
24114,4,1,518,1
24115,4,2,540,1
24116,4,2,529,0
24117,4,2,659,0
24118,4,1,384,1
24119,4,2,427,1
24120,4,2,437,1
24121,4,2,574,1
24122,4,1,458,1
24123,4,2,483,1
24124,4,2,522,1
24125,4,2,360,1
24126,4,2,419,1
24127,4,1,405,1
24384,5,2,496,1
24385,5,1,431,1
24386,5,1,360,1
24387,5,2,380,1
24388,5,2,351,1
24389,5,2,396,0
24390,5,2,371,1
24391,5,1,431,1
24392,5,2,416,1
24393,5,1,546,1
24394,5,2,607,1
24395,5,2,418,1
24396,5,2,540,1
24397,5,1,457,1
24398,5,2,402,1
24399,5,1,413,1
24400,5,2,407,1
24401,5,1,345,1
24402,5,1,350,1
24403,5,2,363,0
24404,5,2,450,1
24405,5,2,339,1
24406,5,1,376,1
24407,5,1,451,1
24408,5,1,412,1
24409,5,2,342,1
24410,5,1,411,1
24411,5,1,373,1
24412,5,1,409,1
24413,5,1,387,1
24414,5,1,343,1
24415,5,2,387,1
24512,5,2,458,1
24513,5,1,378,1
24514,5,2,374,1
24515,5,1,410,1
24516,5,1,428,1
24517,5,2,549,1
24518,5,1,434,1
24519,5,1,403,1
24520,5,2,438,1
24521,5,1,367,1
24522,5,1,371,1
24523,5,1,415,1
24524,5,2,433,1
24525,5,1,458,1
24526,5,1,419,1
24527,5,2,517,1
24528,5,1,507,1
24529,5,1,426,1
24530,5,1,579,1
24531,5,2,439,1
24532,5,2,480,1
24533,5,2,447,1
24534,5,2,448,1
24535,5,2,369,1
24536,5,2,429,1
24537,5,1,510,1
24538,5,2,452,1
24539,5,2,453,1
24540,5,2,413,1
24541,5,1,415,1
24542,5,2,425,1
24543,5,1,475,1
24640,5,1,436,1
24641,5,2,397,1
24642,5,1,384,1
24643,5,2,499,1
24644,5,2,458,1
24645,5,2,410,0
24646,5,1,393,1
24647,5,1,396,1
24648,5,2,462,1
24649,5,1,550,1
24650,5,2,395,1
24651,5,2,406,1
24652,5,1,488,1
24653,5,2,376,1
24654,5,1,460,1
24655,5,1,492,1
24656,5,1,387,1
24657,5,2,438,1
24658,5,1,400,1
24659,5,2,426,1
24660,5,2,468,1
24661,5,1,412,1
24662,5,1,486,1
24663,5,1,381,1
24664,5,2,488,1
24665,5,1,424,1
24666,5,2,489,1
24667,5,1,361,1
24668,5,2,412,1
24669,5,1,406,1
24670,5,2,409,1
24671,5,2,411,1
24768,5,2,568,1
24769,5,2,396,1
24770,5,1,462,1
24771,5,2,478,1
24772,5,2,446,1
24773,5,2,510,1
24774,5,2,421,1
24775,5,1,383,1
24776,5,1,402,1
24777,5,1,429,1
24778,5,2,486,1
24779,5,2,493,1
24780,5,1,452,1
24781,5,2,389,1
24782,5,1,400,1
24783,5,2,411,1
24784,5,1,404,1
24785,5,1,406,1
24786,5,2,441,1
24787,5,1,418,1
24788,5,1,396,1
24789,5,2,479,1
24790,5,1,478,1
24791,5,1,422,1
24792,5,1,464,1
24793,5,2,504,1
24794,5,1,438,1
24795,5,2,480,1
24796,5,2,463,1
24797,5,1,527,1
24798,5,2,604,1
24799,5,1,431,1
24896,5,1,691,0
24897,5,2,551,1
24898,5,1,443,1
24899,5,2,500,1
24900,5,2,522,1
24901,5,2,424,1
24902,5,2,418,1
24903,5,1,340,1
24904,5,2,441,1
24905,5,1,386,1
24906,5,2,358,1
24907,5,2,458,1
24908,5,1,451,1
24909,5,1,364,1
24910,5,2,464,1
24911,5,1,368,1
24912,5,2,404,1
24913,5,1,454,1
24914,5,2,383,1
24915,5,1,386,1
24916,5,1,430,1
24917,5,2,479,1
24918,5,2,430,1
24919,5,2,416,1
24920,5,1,426,1
24921,5,2,428,1
24922,5,1,413,1
24923,5,2,383,1
24924,5,1,426,1
24925,5,1,452,1
24926,5,1,397,1
24927,5,1,367,1
25024,5,2,435,1
25025,5,2,461,1
25026,5,2,485,1
25027,5,2,420,1
25028,5,1,414,1
25029,5,1,392,1
25030,5,2,395,1
25031,5,2,486,1
25032,5,1,613,1
25033,5,1,424,1
25034,5,2,513,1
25035,5,1,408,1
25036,5,1,474,1
25037,5,1,410,1
25038,5,2,476,1
25039,5,1,436,1
25040,5,1,437,1
25041,5,2,406,1
25042,5,2,481,1
25043,5,1,424,1
25044,5,1,450,1
25045,5,1,491,1
25046,5,1,498,1
25047,5,2,641,1
25048,5,2,450,1
25049,5,2,499,1
25050,5,2,626,1
25051,5,1,652,1
25052,5,1,597,1
25053,5,1,583,1
25054,5,2,595,1
25055,5,2,574,1
25216,6,2,632,1
25217,6,2,489,1
25218,6,2,337,0
25219,6,1,410,1
25220,6,1,364,1
25221,6,1,408,1
25222,6,1,323,1
25223,6,1,273,1
25224,6,2,521,1
25225,6,2,455,1
25226,6,2,256,0
25227,6,1,509,1
25228,6,2,499,1
25229,6,1,370,1
25230,6,2,470,1
25231,6,2,494,1
25232,6,1,485,1
25233,6,1,468,1
25234,6,1,364,1
25235,6,1,400,1
25236,6,2,387,0
25237,6,2,491,1
25238,6,2,466,1
25239,6,1,602,1
25240,6,1,421,1
25241,6,2,463,1
25242,6,2,495,1
25243,6,1,453,1
25244,6,2,486,1
25245,6,1,502,1
25246,6,2,499,1
25247,6,1,418,0
25344,6,2,450,1
25345,6,1,403,1
25346,6,2,438,1
25347,6,1,335,1
25348,6,1,395,1
25349,6,1,326,1
25350,6,2,483,1
25351,6,2,451,1
25352,6,1,451,0
25353,6,1,393,1
25354,6,1,363,1
25355,6,1,391,1
25356,6,2,483,1
25357,6,1,386,1
25358,6,2,493,1
25359,6,2,620,1
25360,6,1,382,1
25361,6,1,337,1
25362,6,2,407,1
25363,6,1,393,1
25364,6,2,476,1
25365,6,2,403,1
25366,6,2,494,1
25367,6,1,501,1
25368,6,2,475,1
25369,6,2,427,1
25370,6,1,413,1
25371,6,2,399,0
25372,6,2,414,1
25373,6,1,352,1
25374,6,2,541,1
25375,6,1,498,1
25472,6,2,522,1
25473,6,1,424,1
25474,6,1,394,1
25475,6,2,493,1
25476,6,1,467,1
25477,6,2,379,1
25478,6,1,423,1
25479,6,2,401,1
25480,6,2,571,1
25481,6,2,463,1
25482,6,1,519,1
25483,6,2,382,1
25484,6,2,561,1
25485,6,1,389,1
25486,6,2,512,1
25487,6,1,446,1
25488,6,1,423,1
25489,6,1,457,1
25490,6,1,482,1
25491,6,1,425,1
25492,6,2,475,1
25493,6,2,427,1
25494,6,2,444,1
25495,6,1,477,1
25496,6,1,492,1
25497,6,1,388,1
25498,6,2,511,1
25499,6,1,453,1
25500,6,2,422,1
25501,6,1,384,1
25502,6,2,483,1
25503,6,2,386,0
25600,6,1,405,1
25601,6,2,352,0
25602,6,1,481,1
25603,6,1,344,1
25604,6,2,445,1
25605,6,2,525,1
25606,6,1,443,1
25607,6,1,428,1
25608,6,1,677,1
25609,6,2,533,1
25610,6,2,458,1
25611,6,1,403,1
25612,6,2,582,1
25613,6,2,433,1
25614,6,1,754,1
25615,6,1,423,1
25616,6,2,433,1
25617,6,2,482,1
25618,6,2,362,0
25619,6,2,402,1
25620,6,1,389,1
25621,6,1,360,1
25622,6,2,468,1
25623,6,2,571,1
25624,6,2,599,1
25625,6,2,514,1
25626,6,1,424,1
25627,6,1,418,1
25628,6,2,460,1
25629,6,1,492,1
25630,6,1,356,1
25631,6,1,392,1
25728,6,2,429,1
25729,6,1,526,1
25730,6,1,380,1
25731,6,2,423,1
25732,6,2,361,1
25733,6,2,725,1
25734,6,1,347,1
25735,6,2,384,0
25736,6,1,496,1
25737,6,2,510,1
25738,6,2,412,1
25739,6,1,366,1
25740,6,1,314,1
25741,6,1,464,1
25742,6,2,512,1
25743,6,2,437,1
25744,6,1,407,1
25745,6,1,401,1
25746,6,1,388,1
25747,6,1,383,1
25748,6,1,451,1
25749,6,1,467,1
25750,6,1,475,1
25751,6,1,411,1
25752,6,1,405,1
25753,6,2,440,1
25754,6,2,441,1
25755,6,2,451,0
25756,6,2,456,1
25757,6,2,569,1
25758,6,2,549,1
25759,6,2,441,1
25856,6,2,433,1
25857,6,1,402,1
25858,6,1,405,1
25859,6,1,383,1
25860,6,1,379,1
25861,6,2,430,1
25862,6,2,463,1
25863,6,1,359,1
25864,6,2,491,1
25865,6,2,499,1
25866,6,1,489,1
25867,6,1,481,1
25868,6,2,480,1
25869,6,1,727,1
25870,6,2,469,1
25871,6,1,501,1
25872,6,1,596,1
25873,6,1,366,1
25874,6,2,402,1
25875,6,2,421,1
25876,6,1,767,1
25877,6,2,451,1
25878,6,2,412,1
25879,6,2,398,1
25880,6,1,520,1
25881,6,1,455,1
25882,6,2,615,1
25883,6,2,473,1
25884,6,1,497,1
25885,6,2,456,1
25886,6,1,473,1
25887,6,2,545,1
26208,7,2,503,1
26209,7,2,501,1
26210,7,2,372,1
26211,7,1,408,1
26212,7,2,371,1
26213,7,1,343,1
26214,7,2,420,1
26215,7,2,462,1
26216,7,1,374,1
26217,7,1,490,1
26218,7,2,409,1
26219,7,1,356,1
26220,7,1,433,1
26221,7,1,442,1
26222,7,2,467,1
26223,7,2,451,1
26224,7,2,548,1
26225,7,1,409,1
26226,7,2,443,0
26227,7,2,504,1
26228,7,1,407,1
26229,7,1,362,1
26230,7,2,422,1
26231,7,1,400,1
26232,7,2,347,0
26233,7,2,451,1
26234,7,2,379,1
26235,7,1,367,1
26236,7,1,507,1
26237,7,1,537,1
26238,7,1,431,1
26239,7,1,424,1
26336,7,1,409,1
26337,7,2,467,1
26338,7,2,491,1
26339,7,1,395,1
26340,7,2,429,1
26341,7,2,511,1
26342,7,2,420,1
26343,7,1,566,1
26344,7,2,626,1
26345,7,2,531,1
26346,7,1,505,1
26347,7,2,495,1
26348,7,2,454,1
26349,7,1,503,1
26350,7,1,429,1
26351,7,1,487,1
26352,7,1,446,1
26353,7,1,479,1
26354,7,2,582,1
26355,7,2,521,1
26356,7,1,496,1
26357,7,2,454,1
26358,7,1,463,1
26359,7,2,439,1
26360,7,2,512,1
26361,7,2,518,1
26362,7,1,620,1
26363,7,1,646,1
26364,7,1,463,1
26365,7,1,591,1
26366,7,2,555,1
26367,7,1,527,1
26464,7,1,551,1
26465,7,2,419,1
26466,7,1,445,1
26467,7,1,478,1
26468,7,1,406,1
26469,7,2,472,1
26470,7,2,432,1
26471,7,2,466,1
26472,7,1,458,1
26473,7,1,450,1
26474,7,2,467,1
26475,7,1,491,1
26476,7,2,458,1
26477,7,1,755,1
26478,7,1,464,1
26479,7,2,480,1
26480,7,1,479,1
26481,7,1,510,1
26482,7,2,445,1
26483,7,2,445,1
26484,7,2,526,1
26485,7,1,436,1
26486,7,2,461,1
26487,7,1,436,1
26488,7,2,550,0
26489,7,2,415,1
26490,7,1,353,1
26491,7,2,462,1
26492,7,1,470,1
26493,7,2,430,1
26494,7,1,535,1
26495,7,2,452,1
26592,7,1,368,1
26593,7,1,428,1
26594,7,1,421,1
26595,7,2,423,1
26596,7,2,401,1
26597,7,2,380,1
26598,7,1,415,1
26599,7,2,441,1
26600,7,2,370,1
26601,7,2,462,1
26602,7,1,374,1
26603,7,2,530,1
26604,7,1,584,1
26605,7,1,355,1
26606,7,1,360,1
26607,7,2,556,1
26608,7,1,536,1
26609,7,1,358,1
26610,7,2,386,1
26611,7,2,462,1
26612,7,2,350,1
26613,7,1,426,1
26614,7,1,428,1
26615,7,2,485,1
26616,7,2,524,1
26617,7,1,450,1
26618,7,2,555,1
26619,7,1,496,1
26620,7,2,471,1
26621,7,1,479,1
26622,7,1,566,1
26623,7,2,514,1
26720,7,1,452,1
26721,7,1,500,1
26722,7,1,555,1
26723,7,2,368,1
26724,7,2,420,1
26725,7,2,374,1
26726,7,2,450,1
26727,7,1,362,1
26728,7,1,454,1
26729,7,2,479,1
26730,7,2,422,1
26731,7,2,416,1
26732,7,1,514,1
26733,7,1,432,1
26734,7,2,506,1
26735,7,2,584,1
26736,7,1,524,1
26737,7,1,674,1
26738,7,1,450,1
26739,7,1,443,1
26740,7,2,444,1
26741,7,2,445,1
26742,7,2,485,1
26743,7,1,469,1
26744,7,2,484,1
26745,7,2,459,1
26746,7,1,547,1
26747,7,2,448,1
26748,7,1,640,1
26749,7,1,586,1
26750,7,2,477,1
26751,7,1,437,1
26848,7,1,365,1
26849,7,2,393,1
26850,7,2,411,1
26851,7,2,429,1
26852,7,1,415,1
26853,7,2,425,1
26854,7,1,395,1
26855,7,1,349,1
26856,7,2,546,1
26857,7,2,439,1
26858,7,2,392,1
26859,7,2,395,1
26860,7,1,398,1
26861,7,1,417,1
26862,7,1,427,1
26863,7,2,396,0
26864,7,1,395,1
26865,7,2,374,1
26866,7,2,394,1
26867,7,1,445,1
26868,7,1,421,1
26869,7,2,463,1
26870,7,2,383,1
26871,7,1,515,1
26872,7,1,457,1
26873,7,2,441,1
26874,7,1,475,1
26875,7,2,427,1
26876,7,1,380,1
26877,7,1,407,1
26878,7,1,402,1
26879,7,2,437,1
27040,8,1,476,1
27041,8,1,460,1
27042,8,1,340,1
27043,8,1,362,1
27044,8,1,398,1
27045,8,1,439,1
27046,8,2,633,1
27047,8,2,458,1
27048,8,2,451,1
27049,8,1,371,1
27050,8,2,439,1
27051,8,2,441,1
27052,8,2,466,1
27053,8,2,490,1
27054,8,1,457,1
27055,8,2,450,1
27056,8,2,459,1
27057,8,2,483,1
27058,8,2,475,1
27059,8,2,467,1
27060,8,2,443,1
27061,8,1,539,1
27062,8,2,401,1
27063,8,2,372,1
27064,8,1,416,1
27065,8,1,394,1
27066,8,1,468,1
27067,8,1,404,1
27068,8,2,399,1
27069,8,1,506,1
27070,8,1,416,1
27071,8,1,362,1
27168,8,2,505,1
27169,8,2,359,1
27170,8,1,299,0
27171,8,2,399,1
27172,8,1,625,1
27173,8,1,379,1
27174,8,2,487,1
27175,8,2,470,1
27176,8,1,398,1
27177,8,1,449,1
27178,8,1,409,1
27179,8,1,459,1
27180,8,1,419,1
27181,8,1,485,1
27182,8,2,533,1
27183,8,1,370,1
27184,8,2,470,1
27185,8,1,446,1
27186,8,2,455,1
27187,8,2,408,1
27188,8,1,538,1
27189,8,2,464,1
27190,8,2,504,1
27191,8,2,462,1
27192,8,2,358,1
27193,8,1,323,0
27194,8,2,477,1
27195,8,1,469,1
27196,8,2,477,1
27197,8,1,428,1
27198,8,1,453,1
27199,8,2,478,1
27296,8,1,454,0
27297,8,1,515,1
27298,8,1,433,1
27299,8,2,410,1
27300,8,1,412,1
27301,8,2,478,1
27302,8,2,542,1
27303,8,2,387,1
27304,8,2,510,1
27305,8,1,356,0
27306,8,2,414,1
27307,8,2,440,1
27308,8,2,441,1
27309,8,2,498,1
27310,8,2,441,1
27311,8,2,418,1
27312,8,1,332,0
27313,8,1,414,1
27314,8,1,368,1
27315,8,1,396,1
27316,8,1,407,1
27317,8,2,545,1
27318,8,2,454,1
27319,8,1,423,1
27320,8,2,433,1
27321,8,2,402,1
27322,8,1,349,1
27323,8,1,514,1
27324,8,1,320,1
27325,8,1,317,1
27326,8,1,426,1
27327,8,2,532,1
27424,8,2,547,1
27425,8,2,360,1
27426,8,1,476,1
27427,8,2,444,1
27428,8,1,365,1
27429,8,1,369,1
27430,8,2,429,1
27431,8,1,454,1
27432,8,1,431,1
27433,8,1,384,1
27434,8,1,515,1
27435,8,2,481,1
27436,8,1,417,1
27437,8,1,698,1
27438,8,1,505,1
27439,8,2,343,0
27440,8,1,392,1
27441,8,1,363,1
27442,8,2,519,1
27443,8,2,469,1
27444,8,1,445,1
27445,8,2,358,0
27446,8,2,439,1
27447,8,2,336,1
27448,8,2,374,1
27449,8,1,586,1
27450,8,2,445,1
27451,8,1,342,1
27452,8,2,427,1
27453,8,1,460,1
27454,8,2,364,0
27455,8,2,333,0
27552,8,1,460,1
27553,8,2,476,1
27554,8,2,387,1
27555,8,2,374,1
27556,8,1,586,1
27557,8,2,350,1
27558,8,2,370,0
27559,8,2,515,1
27560,8,1,457,1
27561,8,1,354,1
27562,8,2,438,1
27563,8,1,376,0
27564,8,1,464,1
27565,8,2,448,1
27566,8,2,417,1
27567,8,1,379,1
27568,8,1,662,1
27569,8,2,446,1
27570,8,2,495,1
27571,8,1,382,1
27572,8,2,617,1
27573,8,2,499,1
27574,8,1,522,1
27575,8,1,480,1
27576,8,1,671,1
27577,8,2,423,1
27578,8,1,449,1
27579,8,1,410,1
27580,8,1,340,1
27581,8,2,457,1
27582,8,1,434,0
27583,8,2,448,1
27680,8,2,563,1
27681,8,1,535,1
27682,8,2,365,0
27683,8,2,437,1
27684,8,2,391,1
27685,8,1,362,0
27686,8,2,379,1
27687,8,2,430,0
27688,8,2,444,1
27689,8,1,444,1
27690,8,2,501,1
27691,8,1,548,1
27692,8,2,504,1
27693,8,1,415,1
27694,8,1,385,1
27695,8,1,453,1
27696,8,1,501,1
27697,8,1,460,1
27698,8,1,412,1
27699,8,2,446,1
27700,8,2,703,1
27701,8,2,453,1
27702,8,2,373,1
27703,8,1,393,0
27704,8,1,488,1
27705,8,1,352,1
27706,8,1,356,1
27707,8,2,577,1
27708,8,1,492,1
27709,8,2,412,1
27710,8,1,350,1
27711,8,2,514,1
27968,9,1,541,1
27969,9,1,466,1
27970,9,2,482,1
27971,9,2,449,1
27972,9,2,626,1
27973,9,1,467,1
27974,9,2,467,1
27975,9,2,411,1
27976,9,1,541,1
27977,9,2,539,1
27978,9,2,512,1
27979,9,1,534,1
27980,9,2,540,1
27981,9,2,513,1
27982,9,1,591,1
27983,9,2,602,1
27984,9,1,373,1
27985,9,1,473,1
27986,9,1,809,1
27987,9,1,412,1
27988,9,1,358,1
27989,9,2,483,1
27990,9,1,642,1
27991,9,1,659,1
27992,9,2,476,1
27993,9,2,492,1
27994,9,1,651,1
27995,9,2,620,1
27996,9,2,654,1
27997,9,1,511,1
27998,9,1,437,1
27999,9,2,502,1
28096,9,1,600,0
28097,9,1,711,1
28098,9,2,517,1
28099,9,2,531,1
28100,9,2,529,1
28101,9,2,494,1
28102,9,2,493,1
28103,9,2,540,1
28104,9,2,497,1
28105,9,1,448,1
28106,9,2,552,1
28107,9,1,533,1
28108,9,2,578,1
28109,9,1,542,1
28110,9,2,483,1
28111,9,2,378,1
28112,9,2,382,1
28113,9,1,401,1
28114,9,1,476,1
28115,9,1,428,1
28116,9,1,525,1
28117,9,1,363,1
28118,9,1,375,1
28119,9,2,475,1
28120,9,1,482,1
28121,9,1,474,1
28122,9,2,458,1
28123,9,2,434,1
28124,9,1,460,1
28125,9,2,452,1
28126,9,1,404,1
28127,9,1,463,1
28224,9,2,596,1
28225,9,1,366,1
28226,9,1,466,1
28227,9,1,362,1
28228,9,2,462,1
28229,9,1,494,1
28230,9,1,420,1
28231,9,2,462,1
28232,9,2,526,1
28233,9,2,532,1
28234,9,2,513,1
28235,9,2,927,1
28236,9,2,573,1
28237,9,1,609,1
28238,9,2,499,1
28239,9,2,490,1
28240,9,1,537,1
28241,9,2,495,1
28242,9,1,477,1
28243,9,2,485,1
28244,9,2,492,1
28245,9,2,516,1
28246,9,2,466,1
28247,9,2,418,1
28248,9,1,484,1
28249,9,1,491,1
28250,9,1,466,1
28251,9,1,434,1
28252,9,1,412,1
28253,9,1,470,1
28254,9,1,414,1
28255,9,1,576,1
28352,9,1,450,1
28353,9,2,410,0
28354,9,2,521,1
28355,9,1,423,1
28356,9,2,513,1
28357,9,2,487,1
28358,9,1,422,1
28359,9,2,592,1
28360,9,2,468,1
28361,9,2,452,0
28362,9,2,561,1
28363,9,1,485,1
28364,9,2,508,1
28365,9,2,459,1
28366,9,2,532,1
28367,9,1,497,1
28368,9,1,400,1
28369,9,1,410,1
28370,9,1,444,1
28371,9,2,565,1
28372,9,1,417,1
28373,9,1,443,1
28374,9,1,420,1
28375,9,2,414,0
28376,9,1,396,1
28377,9,2,479,1
28378,9,1,478,1
28379,9,1,518,1
28380,9,1,484,1
28381,9,2,451,1
28382,9,1,460,1
28383,9,2,540,1
28480,9,1,373,1
28481,9,1,449,1
28482,9,1,602,1
28483,9,1,436,1
28484,9,1,470,1
28485,9,1,502,1
28486,9,2,516,1
28487,9,1,434,1
28488,9,2,460,1
28489,9,2,420,1
28490,9,1,486,1
28491,9,1,413,1
28492,9,2,471,1
28493,9,1,431,1
28494,9,2,497,1
28495,9,2,487,1
28496,9,2,423,1
28497,9,2,497,1
28498,9,2,439,1
28499,9,2,441,1
28500,9,2,514,1
28501,9,1,471,1
28502,9,2,415,1
28503,9,2,457,1
28504,9,1,402,1
28505,9,2,500,1
28506,9,1,419,1
28507,9,1,429,1
28508,9,1,366,1
28509,9,1,394,1
28510,9,2,493,1
28511,9,2,388,1
28608,9,1,799,1
